Time,Acc_X,Acc_Y,Acc_Z
0.000000000000000000e+00,8.385212052535992555e+00,1.595599482830493798e+00,9.099140124271357877e+00
1.000000000000000021e-03,7.979409770592821971e+00,1.102268560970667721e+00,8.361768684410471053e+00
2.000000000000000042e-03,7.282667133604323162e+00,4.255511378789622046e-01,7.609200404232079329e+00
3.000000000000000062e-03,7.312280417970959512e+00,3.987210369808598664e-01,7.466834176006811319e+00
4.000000000000000083e-03,7.103749515871799147e+00,1.779949333098305997e-01,7.197137154700839368e+00
5.000000000000000104e-03,6.966692127918526545e+00,4.550042241567982954e-02,7.045973535734382232e+00
6.000000000000000125e-03,7.164125574379427874e+00,1.847882289780977128e-01,7.112107140241853642e+00
7.000000000000000146e-03,7.088304288109737783e+00,1.055885898803566592e-01,7.019518045543111207e+00
8.000000000000000167e-03,7.041780229307310179e+00,6.377876151481710887e-02,6.975453125027574863e+00
9.000000000000001055e-03,7.101618395524941896e+00,9.806066863482310048e-02,6.979066016716302556e+00
1.000000000000000021e-02,6.937752635236342336e+00,-3.352328911735742711e-02,6.873151177135327750e+00
1.099999999999999936e-02,6.780168869679376265e+00,-1.656490551054677074e-01,6.764251705786898938e+00
1.200000000000000025e-02,6.867910095774427681e+00,-9.469231483469900401e-02,6.816225372961516094e+00
1.300000000000000114e-02,6.832103993029679856e+00,-1.079466086292174831e-01,6.823359841467796727e+00
1.400000000000000029e-02,6.743088547839037439e+00,-2.004178587273049428e-01,6.725307687415599922e+00
1.499999999999999944e-02,7.013119842966148099e+00,2.526235235200235268e-02,6.904552050277342978e+00
1.600000000000000033e-02,6.700760384209049292e+00,-2.488769195946006763e-01,6.666590899722954155e+00
1.700000000000000122e-02,7.092651849636683714e+00,8.163691962320475393e-02,6.933730082879157486e+00
1.800000000000000211e-02,7.201785376947827721e+00,1.785763744719397195e-01,7.016525777114405393e+00
1.899999999999999953e-02,6.614814505197382566e+00,-3.325152741062944450e-01,6.579413277133914661e+00
2.000000000000000042e-02,6.882229032050815043e+00,-1.023347023734560157e-01,6.770511666837461640e+00
2.100000000000000130e-02,6.753415305796538703e+00,-2.017007317758882645e-01,6.698799147871793203e+00
2.199999999999999872e-02,6.622993586904623697e+00,-3.097434919287227473e-01,6.611397348687392039e+00
2.299999999999999961e-02,6.696765653735114121e+00,-2.629360078989304572e-01,6.629560540911930033e+00
2.400000000000000050e-02,6.704769028640670925e+00,-2.480864762841291649e-01,6.649636857806162205e+00
2.500000000000000139e-02,6.866515278301140057e+00,-1.157198636822470983e-01,6.751066793779031627e+00
2.600000000000000228e-02,7.056872655816404993e+00,3.486272344192878347e-02,6.860381819427972871e+00
2.699999999999999969e-02,6.975179589748735864e+00,-2.434393477014200335e-02,6.822234942390613455e+00
2.800000000000000058e-02,6.969441912689977592e+00,-3.801174052088585054e-02,6.799278337910948267e+00
2.900000000000000147e-02,6.974876506618375771e+00,-2.987181233890578991e-02,6.808834632641384665e+00
2.999999999999999889e-02,6.778513049324241813e+00,-1.817964520962796482e-01,6.700131221399697523e+00
3.099999999999999978e-02,6.686369070567661055e+00,-2.755133201356705919e-01,6.603696858071864462e+00
3.200000000000000067e-02,6.608465765756617927e+00,-3.409489818307003262e-01,6.549658746229122031e+00
3.300000000000000155e-02,6.784274012969449430e+00,-1.787966282044103905e-01,6.697161078389173738e+00
3.400000000000000244e-02,6.963892625532725589e+00,-4.574435731734014660e-02,6.782730218290677904e+00
3.500000000000000333e-02,6.859325937876794121e+00,-1.378971314240526880e-01,6.702153198464272599e+00
3.600000000000000422e-02,6.838810307564699542e+00,-1.606376573356538828e-01,6.676429455332306695e+00
3.699999999999999817e-02,7.009123064945600667e+00,-2.216912853137081862e-02,6.782376393302808282e+00
3.799999999999999906e-02,6.842245965156754650e+00,-1.481718597321382003e-01,6.696652661710353449e+00
3.899999999999999994e-02,6.808880206323858708e+00,-1.742710076655132334e-01,6.677307693297806601e+00
4.000000000000000083e-02,6.892260035836758725e+00,-9.794341797188350907e-02,6.746154402464255462e+00
4.100000000000000172e-02,6.709355810044239199e+00,-2.394839341639351527e-01,6.645633506113517441e+00
4.200000000000000261e-02,6.647556060809121092e+00,-3.103571065258769468e-01,6.565428037890893798e+00
4.300000000000000350e-02,6.763928929516417554e+00,-2.128464809057812601e-01,6.643903335310386460e+00
4.399999999999999745e-02,6.798198256133298756e+00,-1.776250478480790318e-01,6.679990051281120778e+00
4.499999999999999833e-02,6.971086561628338174e+00,-4.760509878457474392e-02,6.767141458290113043e+00
4.599999999999999922e-02,7.104482312863532378e+00,7.838475344529846622e-02,6.885812141587697610e+00
4.700000000000000011e-02,6.702069737104339175e+00,-2.731591017047670933e-01,6.585310831331887549e+00
4.800000000000000100e-02,7.061995545308906941e+00,4.193482034447031104e-02,6.855833864352716134e+00
4.900000000000000189e-02,6.995379761112105577e+00,6.494847307991380436e-03,6.851917850713856950e+00
5.000000000000000278e-02,6.733191755275537815e+00,-2.252042268464859165e-01,6.651142885158966678e+00
5.100000000000000366e-02,6.790985118072453197e+00,-1.856835964518942783e-01,6.672912765419851233e+00
5.200000000000000455e-02,6.717763658803656668e+00,-2.396473441777588476e-01,6.638815192566228873e+00
5.299999999999999850e-02,7.045395239859784553e+00,3.514000274738690588e-02,6.861452824573982312e+00
5.399999999999999939e-02,7.168781994988688844e+00,1.318731348628975064e-01,6.932312382924632921e+00
5.500000000000000028e-02,7.111687553707659148e+00,9.236081972933339601e-02,6.911247147050286976e+00
5.600000000000000117e-02,7.281413059846470581e+00,2.312497630292120743e-01,7.020248658479633974e+00
5.700000000000000205e-02,7.044854707606551969e+00,3.099980692644063035e-02,6.857339582121556809e+00
5.800000000000000294e-02,6.889397058447694455e+00,-8.564995837432980152e-02,6.780612613256565169e+00
5.900000000000000383e-02,6.906361949293336799e+00,-7.740140269317739852e-02,6.781341154094424617e+00
5.999999999999999778e-02,6.753419901471275466e+00,-1.970868342890420566e-01,6.696188949032224613e+00
6.099999999999999867e-02,6.696337230810966545e+00,-2.460071303128714137e-01,6.656786714809521222e+00
6.199999999999999956e-02,6.984318819380438192e+00,-8.555959767516200035e-03,6.845140924140414640e+00
6.300000000000000044e-02,6.769611201678617185e+00,-1.929128553248805611e-01,6.692644577303920705e+00
6.400000000000000133e-02,7.188155277114878672e+00,1.721666748967800309e-01,7.005844267653063895e+00
6.500000000000000222e-02,7.303524500107981154e+00,2.662507862902315225e-01,7.080301271098024429e+00
6.600000000000000311e-02,6.895245436686590956e+00,-7.728096569217325629e-02,6.803246464391913939e+00
6.700000000000000400e-02,6.799325257644198039e+00,-1.666300067751174119e-01,6.722268071411202861e+00
6.800000000000000488e-02,6.899241574594680237e+00,-6.698181053458027168e-02,6.823515695777160772e+00
6.900000000000000577e-02,6.766609994879360102e+00,-1.645591886247244062e-01,6.762926187634837660e+00
7.000000000000000666e-02,6.966771947006421328e+00,-6.549026752408690366e-04,6.892570596670336336e+00
7.100000000000000755e-02,6.823433172893094145e+00,-1.263768786827086932e-01,6.786525253445983452e+00
7.200000000000000844e-02,6.803053625153329342e+00,-1.444870050960585517e-01,6.772804278407501322e+00
7.299999999999999545e-02,7.208702802647454000e+00,1.964929996694871617e-01,7.051292513874787282e+00
7.399999999999999634e-02,7.200024592051494032e+00,2.011541920411831219e-01,7.071525894757724195e+00
7.499999999999999722e-02,7.196294821091959726e+00,2.007559740873582632e-01,7.076745039682037941e+00
7.599999999999999811e-02,7.435488117226084270e+00,4.117679295730132250e-01,7.261912067276023564e+00
7.699999999999999900e-02,6.998972114997958016e+00,4.779287900160332503e-02,6.972862501842430838e+00
7.799999999999999989e-02,6.997071777066450338e+00,4.560913018884637377e-02,6.972825456507532493e+00
7.900000000000000078e-02,7.058306434369515436e+00,9.899417880398581060e-02,7.020833997249814828e+00
8.000000000000000167e-02,6.763489151763722340e+00,-1.508606210258875147e-01,6.818455121656719520e+00
8.100000000000000255e-02,7.721481791587094357e+00,8.773970885147309717e-01,8.153182074711764926e+00
8.200000000000000344e-02,7.659829872532793793e+00,7.460188436798901312e-01,7.862728174780190038e+00
8.300000000000000433e-02,7.562286073708940570e+00,6.236409176885102656e-01,7.662372651996517625e+00
8.400000000000000522e-02,7.542162240773566673e+00,5.642404313053743792e-01,7.532521829735394192e+00
8.500000000000000611e-02,7.210612247016901399e+00,2.697638360871871255e-01,7.257278980107549238e+00
8.600000000000000699e-02,7.103057343130250167e+00,1.787059421329464937e-01,7.172973467539297765e+00
8.700000000000000788e-02,7.306567135871972596e+00,3.500976446350038129e-01,7.307418696650595180e+00
8.799999999999999489e-02,6.988517740472053319e+00,8.226274517719252277e-02,7.087956959573207705e+00
8.899999999999999578e-02,7.056560915076531160e+00,1.353995554856576855e-01,7.126161830724212720e+00
8.999999999999999667e-02,7.114086035634092475e+00,1.694680931361252640e-01,7.137852366863048914e+00
9.099999999999999756e-02,7.172581384464951526e+00,2.302505619122066083e-01,7.201097561190016094e+00
9.199999999999999845e-02,7.609083650437495905e+00,6.052327235282416451e-01,7.517336705086307802e+00
9.299999999999999933e-02,7.646343958267300067e+00,6.375513787203981320e-01,7.547493627483405021e+00
9.400000000000000022e-02,7.367433558798466287e+00,4.092035152928962805e-01,7.372488055528879869e+00
9.500000000000000111e-02,7.356109678355120529e+00,3.942463281817991660e-01,7.356674157850129347e+00
9.600000000000000200e-02,7.158428462144541093e+00,2.367115879601137951e-01,7.242056341971220057e+00
9.700000000000000289e-02,6.984597342458476632e+00,9.890558365090343362e-02,7.143036775545296813e+00
9.800000000000000377e-02,7.024137012258035995e+00,1.204481387577179818e-01,7.149331448630754871e+00
9.900000000000000466e-02,7.202953458448748236e+00,2.923121856547356012e-01,7.316977292984344849e+00
1.000000000000000056e-01,7.268806531171886576e+00,3.440193275975908516e-01,7.357254740562000350e+00
1.010000000000000064e-01,7.574693133534015743e+00,5.976677042053268885e-01,7.561360268501241322e+00
1.020000000000000073e-01,7.476626015612867882e+00,5.232868663066537751e-01,7.513337358528328735e+00
1.030000000000000082e-01,7.538433738113750060e+00,5.725707791969146809e-01,7.552742543503752515e+00
1.040000000000000091e-01,7.461351257167800455e+00,5.047344162752864793e-01,7.496768013548749110e+00
1.049999999999999961e-01,7.369955593480251643e+00,4.510154395816651229e-01,7.483309311578682177e+00
1.059999999999999970e-01,7.300105704755291747e+00,3.831828179814865121e-01,7.420042700808267888e+00
1.069999999999999979e-01,7.364421751811070394e+00,4.487301576232956002e-01,7.489332563059880599e+00
1.079999999999999988e-01,7.040821275405127366e+00,1.694215410855824389e-01,7.256786903682892031e+00
1.089999999999999997e-01,7.337827673652663307e+00,4.131102085784409406e-01,7.449586239927946885e+00
1.100000000000000006e-01,7.449876461895748037e+00,5.171282265081456053e-01,7.547956681529594647e+00
1.110000000000000014e-01,7.438903895483797157e+00,5.071891812413605871e-01,7.541386698705665026e+00
1.120000000000000023e-01,7.734585377886143753e+00,7.571841513756246700e-01,7.747980661761328491e+00
1.130000000000000032e-01,7.396036090919459127e+00,4.749404737475368954e-01,7.524275745973441509e+00
1.140000000000000041e-01,7.365562113535912836e+00,4.535873945481238012e-01,7.514222118043893950e+00
1.150000000000000050e-01,7.582350146205133257e+00,6.480943958308095221e-01,7.688569867655505874e+00
1.160000000000000059e-01,7.213623019786251866e+00,3.412407704600374236e-01,7.445652651326161831e+00
1.170000000000000068e-01,7.560825485824715919e+00,6.429721969647524960e-01,7.703915054550947161e+00
1.180000000000000077e-01,7.458409126500695763e+00,5.437600040995232975e-01,7.609846213607157850e+00
1.190000000000000085e-01,7.402207030344870375e+00,5.017839536034252035e-01,7.583970707882897955e+00
1.199999999999999956e-01,7.730806541668981957e+00,7.746192744849652589e-01,7.802849881434858581e+00
1.209999999999999964e-01,7.655587447627878461e+00,7.115020120280486360e-01,7.753574356245066745e+00
1.219999999999999973e-01,7.654088897266521307e+00,7.240027211343780245e-01,7.781744502050571555e+00
1.229999999999999982e-01,7.653526215032915303e+00,7.148790382057587101e-01,7.765658768668886047e+00
1.239999999999999991e-01,7.355045599483689855e+00,4.703907235766763839e-01,7.576689074110115385e+00
1.250000000000000000e-01,7.306933253375656356e+00,4.360517774106039690e-01,7.557575908106507256e+00
1.260000000000000009e-01,7.592833626231554334e+00,6.813502808146030265e-01,7.763649773477617089e+00
1.270000000000000018e-01,7.479345932251895590e+00,5.928897723117790841e-01,7.701517422735786766e+00
1.280000000000000027e-01,7.566576085215657166e+00,6.552541452832978397e-01,7.740239719510287664e+00
1.290000000000000036e-01,7.798915947404319482e+00,8.480079512550551257e-01,7.894552997503691216e+00
1.300000000000000044e-01,7.716517599130716221e+00,7.861380298715376913e-01,7.854278052082155348e+00
1.310000000000000053e-01,7.667319496293094616e+00,7.281531208696858659e-01,7.788493207703091059e+00
1.320000000000000062e-01,7.690443389575588817e+00,7.572466836515308053e-01,7.824463038754938538e+00
1.330000000000000071e-01,7.508479614043544359e+00,6.172370718712872906e-01,7.727233429890564942e+00
1.340000000000000080e-01,7.548755037802544976e+00,6.454244898283505449e-01,7.744077540767064782e+00
1.350000000000000089e-01,7.531754071090860592e+00,6.450487588103577252e-01,7.760990330109511781e+00
1.360000000000000098e-01,7.262102612025687520e+00,4.067826303574059166e-01,7.554691236819633282e+00
1.370000000000000107e-01,7.743877913461727935e+00,8.164468235906859883e-01,7.892744387956795116e+00
1.380000000000000115e-01,7.520650043968132081e+00,6.216297890987655395e-01,7.726756665571370419e+00
1.390000000000000124e-01,7.659484805735525370e+00,7.353604351634059899e-01,7.815720241142410707e+00
1.400000000000000133e-01,7.872869061398304780e+00,9.127732274287572167e-01,7.957417447842233038e+00
1.410000000000000142e-01,7.537575364944737011e+00,6.326240160622385034e-01,7.732587803552255501e+00
1.420000000000000151e-01,7.775843793755034206e+00,8.443150927896654334e-01,7.917796292355555821e+00
1.430000000000000160e-01,7.430759711612710205e+00,5.399544210094959773e-01,7.654174061071227442e+00
1.440000000000000169e-01,7.083365479429336808e+00,2.506003132546948953e-01,7.422796062628263414e+00
1.449999999999999900e-01,7.523929671040651357e+00,6.320557132470981943e-01,7.745000403411791190e+00
1.459999999999999909e-01,7.407297328352139054e+00,5.276196197784378539e-01,7.652540934773068848e+00
1.469999999999999918e-01,7.590413539430990397e+00,6.938106108058685884e-01,7.801510721883419208e+00
1.479999999999999927e-01,7.579375927235744825e+00,6.567433148115754404e-01,7.738042496341535958e+00
1.489999999999999936e-01,7.606867301686548899e+00,6.885164062165333165e-01,7.773651993413189132e+00
1.499999999999999944e-01,7.695897305761819851e+00,7.702203419140996044e-01,7.847511777350900886e+00
1.509999999999999953e-01,7.611042637401263633e+00,6.839057851932929255e-01,7.759147865555544143e+00
1.519999999999999962e-01,7.616843961990981349e+00,7.141288911006296036e-01,7.813133384904343615e+00
1.529999999999999971e-01,7.413601102331362824e+00,5.306599249497715443e-01,7.648710616765642456e+00
1.539999999999999980e-01,7.559959469052234482e+00,6.560120216869168575e-01,7.752262083154658256e+00
1.549999999999999989e-01,7.389867267535104034e+00,5.168791783876053314e-01,7.643229322524647706e+00
1.559999999999999998e-01,7.506122545613583164e+00,5.990902732308363010e-01,7.690473877617289844e+00
1.570000000000000007e-01,7.581097400177607248e+00,6.572402548189827387e-01,7.730815464986883434e+00
1.580000000000000016e-01,7.573364696081125835e+00,6.571021787342795628e-01,7.737229326583619837e+00
1.590000000000000024e-01,7.580695997970126498e+00,6.443627952027622952e-01,7.703319470524368384e+00
1.600000000000000033e-01,7.546768853109891317e+00,6.270880025288564363e-01,7.701542292302135273e+00
1.610000000000000042e-01,7.326009332202804814e+00,4.432693881957167070e-01,7.553457113236891729e+00
1.620000000000000051e-01,7.273577106359691236e+00,3.872746638662656893e-01,7.492641970478604030e+00
1.630000000000000060e-01,7.370892855790086351e+00,4.946399102564342232e-01,7.608750694944119708e+00
1.640000000000000069e-01,7.145433303493641475e+00,2.876755577518211870e-01,7.418929835652320115e+00
1.650000000000000078e-01,7.384185158485742306e+00,4.822777935270589067e-01,7.567987527447286311e+00
1.660000000000000087e-01,7.411084668257309716e+00,5.133246260505702763e-01,7.601746064179273787e+00
1.670000000000000095e-01,7.524910023972929629e+00,5.947803509453433168e-01,7.649358421785095175e+00
1.680000000000000104e-01,7.738878936415254373e+00,7.767810423390850705e-01,7.797881661531298469e+00
1.690000000000000113e-01,7.418965511119266054e+00,5.057314890124465778e-01,7.574153923598642812e+00
1.700000000000000122e-01,7.536370569779423434e+00,6.010555703769979718e-01,7.645824853992998271e+00
1.710000000000000131e-01,7.315581617571718986e+00,4.148520558982756734e-01,7.492607232376184534e+00
1.720000000000000140e-01,7.191680043436431191e+00,3.206607898159608006e-01,7.426502137479980448e+00
1.730000000000000149e-01,7.279835353562331690e+00,3.831869163262922040e-01,7.461753160197758916e+00
1.740000000000000158e-01,7.220396035066370288e+00,3.366786438480634525e-01,7.426511064607446144e+00
1.750000000000000167e-01,7.511877160177087731e+00,5.916892453594002621e-01,7.643370180597051977e+00
1.759999999999999898e-01,7.509043358199836149e+00,5.623087818889770384e-01,7.585748874987125134e+00
1.769999999999999907e-01,7.659126729398613165e+00,7.058472520773517722e-01,7.721037932851842811e+00
1.779999999999999916e-01,7.541223552108041517e+00,5.905745022400328281e-01,7.606683666593616167e+00
1.789999999999999925e-01,7.536535251362503907e+00,5.802048547989948624e-01,7.588916200222835862e+00
1.799999999999999933e-01,7.445079355106941854e+00,5.227041665950347138e-01,7.563652625808243712e+00
1.809999999999999942e-01,7.381576278576629235e+00,4.590820647506674845e-01,7.498194686855220503e+00
1.819999999999999951e-01,7.238476409949848644e+00,3.330250228697078096e-01,7.387467841085590514e+00
1.829999999999999960e-01,7.252907534564576153e+00,3.579839430193622052e-01,7.421248996224682593e+00
1.839999999999999969e-01,7.458027509373916786e+00,5.171700282918646474e-01,7.532805576720200236e+00
1.849999999999999978e-01,7.450707555899407808e+00,5.081668945853655694e-01,7.520436450418372054e+00
1.859999999999999987e-01,7.237906595377899599e+00,3.149290548139388468e-01,7.345094557926577394e+00
1.869999999999999996e-01,7.686791999624919214e+00,6.970619582069226272e-01,7.658826236465081649e+00
1.880000000000000004e-01,7.398250390015164157e+00,4.537882692755001446e-01,7.459192974968136269e+00
1.890000000000000013e-01,7.482811040729942853e+00,5.349073997110240786e-01,7.535267070818653323e+00
1.900000000000000022e-01,7.350823814174887616e+00,4.106856640882583509e-01,7.417234002064492238e+00
1.910000000000000031e-01,7.087051475232624576e+00,1.960789834840374890e-01,7.250245516677628288e+00
1.920000000000000040e-01,7.394628415211884409e+00,4.622387127766548476e-01,7.473472559530248027e+00
1.930000000000000049e-01,7.239966663572739769e+00,3.104961881286151804e-01,7.323168352018244676e+00
1.940000000000000058e-01,7.312793211714613051e+00,3.819759746277163748e-01,7.391857560000191008e+00
1.950000000000000067e-01,7.380406876726748777e+00,4.162870695717354463e-01,7.391461833127465297e+00
1.960000000000000075e-01,7.553817484260501480e+00,5.692373899477710664e-01,7.522589593512956085e+00
1.970000000000000084e-01,7.377560344946134663e+00,4.223166868464603985e-01,7.403687384800765159e+00
1.980000000000000093e-01,7.464329021871737524e+00,4.886438710718117862e-01,7.448301752645254403e+00
1.990000000000000102e-01,7.236811859399378655e+00,3.048800116049702469e-01,7.307068709645355931e+00
2.000000000000000111e-01,6.999502926204233866e+00,1.034834715492089635e-01,7.140413061107253156e+00
2.010000000000000120e-01,7.126075308957171117e+00,2.052335355147382190e-01,7.216222363136271412e+00
2.020000000000000129e-01,7.072528454282248411e+00,1.709651161424819710e-01,7.200168990828855975e+00
2.030000000000000138e-01,7.188206750207981166e+00,2.613581547434311592e-01,7.264270355302882898e+00
2.040000000000000147e-01,7.342269397437152456e+00,3.792695107420844258e-01,7.345082808622247050e+00
2.050000000000000155e-01,7.292264545209332205e+00,3.433490864142190180e-01,7.322359754825612299e+00
2.060000000000000164e-01,7.293842666484191994e+00,3.281995436128921084e-01,7.289657705722431658e+00
2.070000000000000173e-01,8.132440421945577924e+00,1.256868099745924061e+00,8.523665736179355079e+00
2.080000000000000182e-01,7.521114648959891902e+00,6.611004991480741166e-01,7.857759441667904632e+00
2.089999999999999913e-01,7.348287318722991124e+00,4.557102909667524182e-01,7.567621455597299374e+00
2.099999999999999922e-01,7.162996103728132447e+00,2.771576436334864391e-01,7.363976023548126193e+00
2.109999999999999931e-01,7.105240374853161178e+00,2.187804738102235025e-01,7.285519032089931457e+00
2.119999999999999940e-01,7.248446883551942221e+00,3.154947530716689652e-01,7.323815577122286591e+00
2.129999999999999949e-01,7.021205378051343260e+00,1.107063521536794382e-01,7.134152312597778156e+00
2.139999999999999958e-01,7.155723251545960117e+00,2.192490469736944614e-01,7.212209309631183451e+00
2.149999999999999967e-01,7.526242904279752288e+00,5.322386367778495497e-01,7.464896332662885214e+00
2.159999999999999976e-01,7.309180856816256622e+00,3.547979799550843860e-01,7.325388069770212951e+00
2.169999999999999984e-01,7.207685134310315433e+00,2.594453336728861914e-01,7.233720592947433303e+00
2.179999999999999993e-01,7.394756992344786006e+00,4.309815599115409679e-01,7.389737729387610976e+00
2.190000000000000002e-01,7.109345884174315344e+00,1.994034729968248709e-01,7.212084133335418201e+00
2.200000000000000011e-01,7.161216746717387061e+00,2.339709350095290075e-01,7.229514835345042023e+00
2.210000000000000020e-01,7.152477386682635441e+00,2.255084056154190719e-01,7.221571081789486257e+00
2.220000000000000029e-01,7.246600339235667043e+00,3.145141811926440711e-01,7.305776954086748987e+00
2.230000000000000038e-01,7.319526452506623038e+00,3.526286164568090409e-01,7.309472227224301122e+00
2.240000000000000047e-01,7.506755989440988763e+00,5.250203925172317598e-01,7.467493803946747555e+00
2.250000000000000056e-01,7.195115580527117416e+00,2.478878694390488635e-01,7.225411467222691009e+00
2.260000000000000064e-01,7.486735834901530495e+00,4.990411342570799103e-01,7.436714365381510206e+00
2.270000000000000073e-01,7.069023571433186603e+00,1.486058417829045908e-01,7.154246463001589618e+00
2.280000000000000082e-01,7.024710372727723140e+00,1.137380658690371055e-01,7.129587689936383477e+00
2.290000000000000091e-01,7.326512999004098248e+00,3.804270517372709270e-01,7.361999032739433346e+00
2.300000000000000100e-01,6.955063639026043631e+00,6.410397118998990840e-02,7.101709794942687282e+00
2.310000000000000109e-01,7.257297268871391260e+00,3.182486689473424946e-01,7.308743731889807194e+00
2.320000000000000118e-01,7.247422900974996196e+00,2.984495592701085220e-01,7.280067596007139485e+00
2.330000000000000127e-01,7.369930255410949371e+00,4.169627745864104562e-01,7.395702763981566896e+00
2.340000000000000135e-01,7.442459097286065806e+00,4.627711700159783947e-01,7.415973909759126848e+00
2.350000000000000144e-01,7.249860939619515499e+00,2.997500632303453094e-01,7.283778782864545498e+00
2.360000000000000153e-01,7.176083057858140712e+00,2.516151248563328613e-01,7.262599976304985994e+00
2.370000000000000162e-01,7.352245421766242295e+00,4.034489483042605351e-01,7.391481136079976366e+00
2.380000000000000171e-01,7.029172718846707468e+00,1.352732288443715403e-01,7.179639297785389118e+00
2.390000000000000180e-01,6.914905354322052666e+00,3.658253219105472853e-02,7.098021425799598383e+00
2.399999999999999911e-01,7.445765981536551337e+00,4.976304716636515968e-01,7.490810239325671915e+00
2.409999999999999920e-01,7.185862698987524944e+00,2.746335064823707817e-01,7.306328614195856552e+00
2.419999999999999929e-01,7.471718144990996180e+00,5.163733937657076778e-01,7.505615394563111664e+00
2.429999999999999938e-01,7.577928948405227239e+00,6.006406189629684977e-01,7.569652805520400207e+00
2.439999999999999947e-01,7.380154629569903868e+00,4.417104892481052980e-01,7.451329741539266749e+00
2.449999999999999956e-01,7.399479063605832962e+00,4.515767713538333950e-01,7.453547581537491418e+00
2.459999999999999964e-01,7.424086496052547446e+00,4.857578398500143613e-01,7.499156472602947154e+00
2.469999999999999973e-01,6.999883362093383354e+00,1.267334927292670665e-01,7.207207144846437430e+00
2.479999999999999982e-01,7.445907059183357823e+00,5.157258463555624006e-01,7.541103931675943173e+00
2.489999999999999991e-01,7.214984536221883182e+00,3.174153716701336170e-01,7.377378256135044943e+00
2.500000000000000000e-01,7.333798836715573977e+00,4.242586192299268033e-01,7.474257541006666727e+00
2.510000000000000009e-01,7.499707897770484522e+00,5.494143579172853231e-01,7.560698690516021614e+00
2.520000000000000018e-01,7.534345583783760958e+00,5.910868862987546102e-01,7.611473682714189337e+00
2.530000000000000027e-01,7.574774288118870658e+00,6.236206375897677123e-01,7.638206181167240594e+00
2.540000000000000036e-01,7.529484290270961999e+00,5.770403210678858308e-01,7.592452464125106992e+00
2.550000000000000044e-01,7.439118922956184043e+00,5.237379235367349839e-01,7.578350263935938358e+00
2.560000000000000053e-01,7.326824351861829676e+00,4.218191337320597589e-01,7.488961839747124039e+00
2.570000000000000062e-01,7.390506194284406583e+00,4.832856427845457770e-01,7.550381963490300663e+00
2.580000000000000071e-01,7.264161110870570148e+00,3.873988409787265108e-01,7.487133725409049312e+00
2.590000000000000080e-01,7.267449409930367032e+00,3.698608126832194642e-01,7.450957923405342243e+00
2.600000000000000089e-01,7.793691479421482882e+00,8.420310806647397506e-01,7.871250123525852516e+00
2.610000000000000098e-01,7.310369025022766643e+00,4.107075071744663575e-01,7.494121227941930918e+00
2.620000000000000107e-01,7.661721207274526435e+00,7.072286404528952408e-01,7.738006034732856975e+00
2.630000000000000115e-01,7.599170429399278781e+00,6.685312529512512647e-01,7.725352530449696609e+00
2.640000000000000124e-01,7.490767618467163658e+00,5.824514751168041737e-01,7.663778880484979794e+00
2.650000000000000133e-01,7.491526706531402624e+00,5.806513109690555341e-01,7.661591983071531331e+00
2.660000000000000142e-01,7.007651232088543125e+00,1.729249110161833469e-01,7.332173417649212155e+00
2.670000000000000151e-01,7.412642122900928499e+00,5.348723995351921667e-01,7.653219320603703579e+00
2.680000000000000160e-01,7.642787370467842401e+00,7.318877915210648677e-01,7.819226548696256884e+00
2.690000000000000169e-01,7.376242987076914837e+00,5.022840984271857989e-01,7.628661937492046796e+00
2.700000000000000178e-01,7.596637487506797015e+00,6.773375125897030946e-01,7.760446192496296192e+00
2.710000000000000187e-01,7.740876622093073145e+00,8.014770082464369727e-01,7.866528362102192418e+00
2.720000000000000195e-01,7.543925953721134725e+00,6.373705281695569713e-01,7.737275637820201446e+00
2.730000000000000204e-01,7.832708605790958956e+00,8.854984247012781529e-01,7.946722492317275233e+00
2.740000000000000213e-01,7.658449543836159279e+00,7.483002204059669982e-01,7.848519923005322418e+00
2.750000000000000222e-01,7.357078326645754451e+00,4.942817848092767585e-01,7.643747058266745498e+00
2.760000000000000231e-01,7.652423349382300621e+00,7.503553044319213328e-01,7.862396858233637431e+00
2.770000000000000240e-01,7.433658283715066872e+00,5.700832610270718526e-01,7.722417634914955364e+00
2.780000000000000249e-01,7.535434769825851475e+00,6.541606539206162862e-01,7.790544808607646310e+00
2.790000000000000258e-01,7.768844545434392401e+00,8.438290316032355243e-01,7.938166845737777422e+00
2.800000000000000266e-01,7.572510975981145975e+00,6.778456946846106446e-01,7.804172138209787946e+00
2.810000000000000275e-01,7.919544369525518768e+00,9.767598332199511901e-01,8.056545966721399665e+00
2.820000000000000284e-01,7.874725606545561973e+00,9.360804225754728591e-01,8.021522666186877260e+00
2.830000000000000293e-01,7.823340432068529360e+00,9.156442225239659338e-01,8.033487335216971559e+00
2.840000000000000302e-01,7.689130055742376513e+00,7.900073675560952413e-01,7.917808420012325321e+00
2.850000000000000311e-01,7.477759482560059290e+00,6.135310500833094371e-01,7.777540753305903110e+00
2.860000000000000320e-01,7.508457820884201439e+00,6.550598730507329881e-01,7.831141954739317512e+00
2.870000000000000329e-01,7.805083865423050327e+00,9.003722451196024545e-01,8.026307641337105281e+00
2.880000000000000338e-01,7.598433560562099842e+00,7.181547001735432145e-01,7.869612606179074987e+00
2.889999999999999791e-01,7.710853460036720897e+00,8.121293040329450319e-01,7.946152175049970623e+00
2.899999999999999800e-01,7.939698876349662982e+00,9.967368462978156707e-01,8.087450443499527353e+00
2.909999999999999809e-01,7.799090860231352451e+00,8.877982237040284996e-01,8.011026066781170130e+00
2.919999999999999818e-01,7.931399758763868491e+00,1.007506710917618564e+00,8.118893245894241772e+00
2.929999999999999827e-01,7.593259746500118368e+00,7.054198969180618395e-01,7.853531071696760790e+00
2.939999999999999836e-01,7.527925731680849886e+00,6.752263303989960441e-01,7.859059911839773704e+00
2.949999999999999845e-01,7.553802213185016434e+00,6.909937331057434129e-01,7.865208982723483899e+00
2.959999999999999853e-01,7.520577503212549253e+00,6.601464981462953352e-01,7.837137125546581373e+00
2.969999999999999862e-01,7.375658074711856749e+00,5.370147255488457727e-01,7.736096531979960389e+00
2.979999999999999871e-01,7.665346486429013062e+00,7.701127762369726071e-01,7.912811928927543370e+00
2.989999999999999880e-01,7.734878824210750459e+00,8.324151178376781868e-01,7.967994830570224174e+00
2.999999999999999889e-01,7.778881961773774556e+00,8.755533031951110434e-01,8.010280236223895400e+00
3.009999999999999898e-01,7.822974685920177862e+00,9.008396426502804921e-01,8.016672851150515200e+00
3.019999999999999907e-01,7.736369778448103141e+00,8.459833036252938365e-01,7.993377205148430420e+00
3.029999999999999916e-01,7.666974071804566471e+00,7.915508206061789842e-01,7.953618618061691237e+00
3.039999999999999925e-01,7.552576385628973377e+00,6.828484396661352873e-01,7.850219953342240764e+00
3.049999999999999933e-01,7.303771509271908435e+00,4.783190091524313070e-01,7.689471417825791022e+00
3.059999999999999942e-01,7.619065903349330426e+00,7.471221389874329599e-01,7.911185179561329051e+00
3.069999999999999951e-01,7.896514503336105051e+00,9.824897528453653273e-01,8.103769669212891102e+00
3.079999999999999960e-01,7.852100770795996887e+00,9.496349974900154534e-01,8.081667348006385865e+00
3.089999999999999969e-01,7.873020435954662055e+00,9.463387481652637545e-01,8.053243976298464446e+00
3.099999999999999978e-01,7.701721121071262388e+00,7.954393870371961883e-01,7.921728547309184520e+00
3.109999999999999987e-01,7.665600630886958200e+00,7.792627834681934429e-01,7.924374957301150602e+00
3.119999999999999996e-01,7.851862252352633575e+00,9.365194669856335974e-01,8.051401051728316105e+00
3.130000000000000004e-01,7.610252547294112269e+00,7.372459879048763876e-01,7.893133553616022091e+00
3.140000000000000013e-01,7.386148812754964155e+00,5.406866543028356897e-01,7.722684076825450994e+00
3.150000000000000022e-01,7.470334241588200364e+00,5.964882462038527677e-01,7.748563393355394346e+00
3.160000000000000031e-01,8.436866855962943390e+00,1.758995662685369332e+00,9.461461262513974901e+00
3.170000000000000040e-01,8.237918656173501830e+00,1.451553288527923424e+00,8.903682440862151992e+00
3.180000000000000049e-01,8.058358265309776058e+00,1.203930206314539175e+00,8.501176516341617528e+00
3.190000000000000058e-01,7.832093852085484365e+00,9.739467109315185223e-01,8.213987085126621679e+00
3.200000000000000067e-01,7.710808756567828937e+00,8.294992331361014104e-01,8.013069166551980871e+00
3.210000000000000075e-01,7.685673663878244355e+00,7.972661665657665431e-01,7.952630729356464201e+00
3.220000000000000084e-01,7.526627460187325980e+00,6.666852011300004044e-01,7.836769799738235065e+00
3.230000000000000093e-01,7.478445642816351935e+00,6.036758849352815703e-01,7.749615851769561026e+00
3.240000000000000102e-01,7.481668892462662868e+00,6.081114720074897173e-01,7.748595668411084603e+00
3.250000000000000111e-01,7.518211176713364807e+00,6.384931644606761658e-01,7.767719271061319652e+00
3.260000000000000120e-01,7.833557447304836607e+00,8.899925994471178381e-01,7.948792460390984971e+00
3.270000000000000129e-01,7.710099855956290327e+00,7.825658655600387092e-01,7.854681804954784852e+00
3.280000000000000138e-01,7.427341287636640921e+00,5.209779132455363282e-01,7.611460610927323067e+00
3.290000000000000147e-01,7.656304897853361879e+00,7.133375817207882053e-01,7.764325222341961208e+00
3.300000000000000155e-01,7.527177017109726975e+00,6.198827513349999263e-01,7.703566977818996797e+00
3.310000000000000164e-01,7.470834429204416871e+00,5.666800416420096909e-01,7.650444325963229986e+00
3.320000000000000173e-01,7.418159872944718458e+00,5.178119489122910979e-01,7.602241596127239376e+00
3.330000000000000182e-01,6.996409162352358990e+00,1.544889223720663507e-01,7.294126028040475163e+00
3.340000000000000191e-01,7.393895750355866880e+00,4.895628733331797156e-01,7.563490223641454513e+00
3.350000000000000200e-01,7.340605495357510613e+00,4.326093501248950424e-01,7.499501727551351138e+00
3.360000000000000209e-01,7.349495524694511062e+00,4.398434402741562277e-01,7.501635965066508760e+00
3.370000000000000218e-01,7.419596769262168934e+00,4.750064615688671665e-01,7.498347086675571482e+00
3.380000000000000226e-01,7.427728186308122815e+00,4.890109288100334961e-01,7.514643675708024162e+00
3.390000000000000235e-01,7.493883141290134553e+00,5.541969098314806219e-01,7.575215075383535002e+00
3.400000000000000244e-01,7.401241003267352347e+00,4.595087260232054716e-01,7.474773191268756278e+00
3.410000000000000253e-01,7.200026351744782005e+00,2.994055451939676149e-01,7.352014466897601963e+00
3.420000000000000262e-01,7.190617085376731943e+00,2.866458698244784276e-01,7.332080748256609048e+00
3.430000000000000271e-01,7.328450146623123551e+00,3.947582627863159832e-01,7.406595007196446367e+00
3.440000000000000280e-01,7.309885317957601103e+00,3.854009976315164732e-01,7.402516842385274742e+00
3.450000000000000289e-01,7.295202306838812767e+00,3.468132448618120867e-01,7.336047763415302292e+00
3.460000000000000298e-01,7.531818982350950265e+00,5.465293824497745589e-01,7.494841571705795680e+00
3.470000000000000306e-01,7.262410139808164189e+00,3.133392613292489970e-01,7.293806123347559733e+00
3.480000000000000315e-01,7.444936538902874545e+00,4.607058045949031233e-01,7.401909485793407129e+00
3.490000000000000324e-01,7.366152757074117652e+00,4.014961658794195531e-01,7.358134397660458070e+00
3.500000000000000333e-01,7.144581229798934174e+00,2.170450938679282515e-01,7.206630953865295730e+00
3.510000000000000342e-01,7.265306576065455602e+00,3.111652765187797320e-01,7.269942964976412014e+00
3.519999999999999796e-01,6.930896754687632111e+00,2.142352936619319748e-02,7.020639173879909656e+00
3.529999999999999805e-01,6.886232757333725196e+00,-2.760923657251569685e-02,6.962983494936571205e+00
3.539999999999999813e-01,7.200404755981874239e+00,2.279286948370694565e-01,7.155612282166220695e+00
3.549999999999999822e-01,7.278887182273506617e+00,3.028989642325092269e-01,7.222777485043932799e+00
3.559999999999999831e-01,7.245209368932023608e+00,2.545228424593353189e-01,7.155395414878934268e+00
3.569999999999999840e-01,7.350688195145561821e+00,3.391528409587821757e-01,7.214857316610398641e+00
3.579999999999999849e-01,6.996474887809460697e+00,4.033380496161973611e-02,6.967104750375627376e+00
3.589999999999999858e-01,7.043157143896655370e+00,7.325658882778715575e-02,6.981934816266475607e+00
3.599999999999999867e-01,6.909691457738555975e+00,-3.981125606637151565e-02,6.884929199299724800e+00
3.609999999999999876e-01,6.750664157468929005e+00,-1.695308126516354708e-01,6.780182466836730981e+00
3.619999999999999885e-01,7.003410371816069180e+00,3.434872057218610331e-02,6.930864135816367622e+00
3.629999999999999893e-01,6.982420024484487620e+00,1.470567550385556976e-02,6.908243966900302624e+00
3.639999999999999902e-01,6.805799577077729978e+00,-1.523810259903640163e-01,6.746376337327029127e+00
3.649999999999999911e-01,7.163368291909862684e+00,1.414868844808996606e-01,6.972241487906112312e+00
3.659999999999999920e-01,6.854075688844515568e+00,-1.271078907495695187e-01,6.740058237757953208e+00
3.669999999999999929e-01,7.014553495353707646e+00,1.310903832314715481e-02,6.855746538522368816e+00
3.679999999999999938e-01,7.143776662775241704e+00,1.220929959672177323e-01,6.940244948153068805e+00
3.689999999999999947e-01,6.711148260148008582e+00,-2.446301288713989275e-01,6.635204994848632687e+00
3.699999999999999956e-01,6.679082469951752365e+00,-2.839139424818616919e-01,6.584508058495402771e+00
3.709999999999999964e-01,7.018517798776002792e+00,1.424367233580065006e-02,6.837222594530500075e+00
3.719999999999999973e-01,6.471746303807485390e+00,-4.719711276257072541e-01,6.407431536823520624e+00
3.729999999999999982e-01,6.971537712755613292e+00,-5.192030493106871564e-02,6.743643857094615335e+00
3.739999999999999991e-01,7.830772706340986211e+00,9.472129488861660285e-01,8.168550023542739069e+00
3.750000000000000000e-01,7.367902564582797353e+00,4.416114070607191633e-01,7.502116368785035405e+00
3.760000000000000009e-01,7.355669205433478908e+00,3.563943687695898532e-01,7.270744691411284322e+00
3.770000000000000018e-01,6.822566698099847393e+00,-1.391763647948729421e-01,6.766805180078419468e+00
3.780000000000000027e-01,6.510347704091783427e+00,-4.326675426975845062e-01,6.462701615161557278e+00
3.790000000000000036e-01,6.798439580929962922e+00,-1.954901130566155387e-01,6.629689609137960460e+00
3.800000000000000044e-01,6.420302763106011668e+00,-5.261964368100719991e-01,6.333265325175806204e+00
3.810000000000000053e-01,6.653502584436044032e+00,-3.352898653860403866e-01,6.472468584046733753e+00
3.820000000000000062e-01,6.790220884277704094e+00,-2.342955547977776665e-01,6.530619510512618575e+00
3.830000000000000071e-01,6.590016843196933038e+00,-4.112067275942928868e-01,6.371295117118772389e+00
3.840000000000000080e-01,6.720712096075559749e+00,-3.203014950640247771e-01,6.415632528977736726e+00
3.850000000000000089e-01,6.948963342228428708e+00,-1.177760764321273135e-01,6.588936732269137231e+00
3.860000000000000098e-01,6.474461128382313468e+00,-5.292975463219776744e-01,6.236963873062732588e+00
3.870000000000000107e-01,6.633206304928788377e+00,-3.985047884203647972e-01,6.336436980824157850e+00
3.880000000000000115e-01,6.458349976607274279e+00,-5.409480814401662618e-01,6.223105958092791212e+00
3.890000000000000124e-01,6.250805984719089992e+00,-7.205183718954387695e-01,6.068276551621147874e+00
3.900000000000000133e-01,6.379909391227078785e+00,-6.262518020151806031e-01,6.124542811469161130e+00
3.910000000000000142e-01,6.400996827632514652e+00,-6.022343147810002018e-01,6.148397531191829302e+00
3.920000000000000151e-01,6.683833594861569694e+00,-3.637439911320665686e-01,6.339520472801686068e+00
3.930000000000000160e-01,6.740566183153703150e+00,-3.359471873485641025e-01,6.335433571491621230e+00
3.940000000000000169e-01,6.460822439253026239e+00,-5.755775624085995856e-01,6.133042713227292886e+00
3.950000000000000178e-01,6.523818173162542422e+00,-5.290403333847314427e-01,6.160322616816989338e+00
3.960000000000000187e-01,6.542575581714462629e+00,-5.097158662996816858e-01,6.177491228366591258e+00
3.970000000000000195e-01,6.341241207286278936e+00,-6.664727148248359434e-01,6.062665685022626150e+00
3.980000000000000204e-01,6.574061279921424195e+00,-4.676865232907854164e-01,6.224849166805792144e+00
3.990000000000000213e-01,6.301265761091967121e+00,-7.082358327779855189e-01,6.014055240760963983e+00
4.000000000000000222e-01,6.291101675068631494e+00,-7.135140480327516466e-01,6.011250595967345234e+00
4.010000000000000231e-01,6.522212985019381293e+00,-5.344713108575595006e-01,6.135891420988905054e+00
4.020000000000000240e-01,6.400086804338926960e+00,-6.432299564155514737e-01,6.038246280382050024e+00
4.030000000000000249e-01,6.488786944047317817e+00,-5.691854122200623589e-01,6.095460769879751162e+00
4.040000000000000258e-01,6.532644115608466251e+00,-5.463535347470586112e-01,6.095172641024353410e+00
4.050000000000000266e-01,6.444951833894837279e+00,-6.033169375274437529e-01,6.066923242807599870e+00
4.060000000000000275e-01,6.417983616433207139e+00,-6.262902344943378496e-01,6.046009836631264456e+00
4.070000000000000284e-01,6.233373749679765652e+00,-7.938071368594447064e-01,5.893730637290216734e+00
4.080000000000000293e-01,6.152055825082502594e+00,-8.468177657275695047e-01,5.867251652800004713e+00
4.090000000000000302e-01,6.327640629067859734e+00,-7.070347194647078615e-01,5.969536660899105840e+00
4.100000000000000311e-01,6.335811138722318603e+00,-7.096435732557785370e-01,5.954531215580884940e+00
4.110000000000000320e-01,6.178904716302082711e+00,-8.491251773518787571e-01,5.830935857519984999e+00
4.120000000000000329e-01,6.606903869633545590e+00,-4.916863528557742780e-01,6.116353963630555945e+00
4.130000000000000338e-01,6.492917100456704560e+00,-5.899037003602985996e-01,6.032523283072173115e+00
4.140000000000000346e-01,6.381382120388317425e+00,-6.809161503367079371e-01,5.960727622229752498e+00
4.150000000000000355e-01,6.528496069689864179e+00,-5.581260485886964107e-01,6.057964456848091928e+00
4.160000000000000364e-01,6.293247439353866213e+00,-7.458949283951405995e-01,5.916521467558279568e+00
4.169999999999999818e-01,5.990461069643232328e+00,-1.014811323435591328e+00,5.680395917470097089e+00
4.179999999999999827e-01,6.191479781465771381e+00,-8.469460995744481080e-01,5.814102359293093158e+00
4.189999999999999836e-01,6.265922735382594588e+00,-7.687157968030362554e-01,5.895187594585723723e+00
4.199999999999999845e-01,6.505479125011919272e+00,-5.740832477140782597e-01,6.044035745618525191e+00
4.209999999999999853e-01,6.577763277044514467e+00,-5.241767648902705412e-01,6.070774782867980335e+00
4.219999999999999862e-01,6.461828929119416642e+00,-6.178230082758151553e-01,5.998696514751020281e+00
4.229999999999999871e-01,6.633355855067823548e+00,-4.787945031765650228e-01,6.104574928797062761e+00
4.239999999999999880e-01,6.611532069262728406e+00,-4.874685851001967496e-01,6.108466100093343343e+00
4.249999999999999889e-01,6.109759350491657415e+00,-9.179677185010457485e-01,5.748722032452900699e+00
4.259999999999999898e-01,6.319912628969068358e+00,-7.380887025330279405e-01,5.897872862477830935e+00
4.269999999999999907e-01,6.078016072160671968e+00,-9.399593000943764487e-01,5.735637518273972724e+00
4.279999999999999916e-01,6.133924648414922132e+00,-8.892875441936303194e-01,5.780743545758745938e+00
4.289999999999999925e-01,6.482441115622245675e+00,-5.990412633966720746e-01,6.012451071817761061e+00
4.299999999999999933e-01,6.229814454056327833e+00,-8.190169962211930610e-01,5.824916545418838965e+00
4.309999999999999942e-01,6.517696588500245802e+00,-5.730706888008643141e-01,6.028774622931764249e+00
4.319999999999999951e-01,6.608043320320234670e+00,-5.029037952202755068e-01,6.078665038184490221e+00
4.329999999999999960e-01,6.287008561004815199e+00,-7.695300097858017718e-01,5.866404907203323305e+00
4.339999999999999969e-01,6.364251345733175746e+00,-7.048319871772608103e-01,5.918568277179108605e+00
4.349999999999999978e-01,6.237701026493871481e+00,-8.107361525144073378e-01,5.833371316065874446e+00
4.359999999999999987e-01,6.005483165146671354e+00,-9.998846224819651907e-01,5.687402580127386642e+00
4.369999999999999996e-01,6.295646194188710076e+00,-7.568640542140445682e-01,5.883438658264506849e+00
4.380000000000000004e-01,6.459098123003229830e+00,-6.081161097006259064e-01,6.017686539815413127e+00
4.390000000000000013e-01,6.157488175783102591e+00,-8.809004993285352025e-01,5.773975892407424482e+00
4.400000000000000022e-01,6.419390652270775988e+00,-6.703643752921383259e-01,5.933436417244029037e+00
4.410000000000000031e-01,6.453473633004769283e+00,-6.278313018752132990e-01,5.984751206129805823e+00
4.420000000000000040e-01,6.440304623824663288e+00,-6.371652379883945283e-01,5.979623134708246468e+00
4.430000000000000049e-01,6.367881415351690499e+00,-7.067914701699613556e-01,5.913202139775544097e+00
4.440000000000000058e-01,6.221220060675734409e+00,-8.104054392940571727e-01,5.853079590947148247e+00
4.450000000000000067e-01,6.330539536679325785e+00,-7.137412547207223623e-01,5.937566603773520413e+00
4.460000000000000075e-01,6.195469886049316699e+00,-8.390147981684416001e-01,5.822599692688854134e+00
4.470000000000000084e-01,6.392799142178964722e+00,-6.490500118517266159e-01,6.005741272500893402e+00
4.480000000000000093e-01,6.259325202151313938e+00,-7.939959739025078678e-01,5.849893637189423679e+00
4.490000000000000102e-01,6.630006374225965615e+00,-4.669885447038517601e-01,6.133825122330331503e+00
4.500000000000000111e-01,6.308811113155583961e+00,-7.504065975145760570e-01,5.888807911057937439e+00
4.510000000000000120e-01,6.609112805270319413e+00,-4.980377430717840004e-01,6.093891802249596701e+00
4.520000000000000129e-01,6.496254203509731262e+00,-5.818401248457463204e-01,6.039816187400440128e+00
4.530000000000000138e-01,6.125434324621624960e+00,-9.014396599532947807e-01,5.772128673952903632e+00
4.540000000000000147e-01,6.423077354461877775e+00,-6.396966052099897215e-01,5.998683050182930465e+00
4.550000000000000155e-01,6.120331202599419207e+00,-8.899622352592606589e-01,5.801627376558831983e+00
4.560000000000000164e-01,6.390651376721493193e+00,-6.526167314862025837e-01,6.006744335659079503e+00
4.570000000000000173e-01,6.393723957745962139e+00,-6.667015552813797541e-01,5.976263512608396056e+00
4.580000000000000182e-01,6.444046575408583166e+00,-6.127145779038652984e-01,6.034690161762843452e+00
4.590000000000000191e-01,6.468486025676917883e+00,-6.110891757266566637e-01,6.014289400723186851e+00
4.600000000000000200e-01,6.540334352021527131e+00,-5.505790821843520311e-01,6.064260427003558718e+00
4.610000000000000209e-01,6.414653960412315392e+00,-6.442528632196657945e-01,6.003402453892003443e+00
4.620000000000000218e-01,6.386398169736366093e+00,-6.773479292467929902e-01,5.966286137768287645e+00
4.630000000000000226e-01,6.350696838896493723e+00,-6.912984273378581790e-01,5.974912168205197105e+00
4.640000000000000235e-01,6.083682639003775705e+00,-9.147278353840925247e-01,5.795899808934840358e+00
4.650000000000000244e-01,6.451352152834527232e+00,-5.990307492618520691e-01,6.060462225447428963e+00
4.660000000000000253e-01,6.230931059702035313e+00,-7.873196227382333046e-01,5.905147821601063107e+00
4.670000000000000262e-01,6.394314162594098683e+00,-6.487459239512213260e-01,6.019757900719996613e+00
4.680000000000000271e-01,6.686462246483015903e+00,-4.082360843568191289e-01,6.209477910488403474e+00
4.690000000000000280e-01,7.580961085303256297e+00,7.159359044194522070e-01,7.946873977527437738e+00
4.700000000000000289e-01,7.206946453410575160e+00,2.513509949374532759e-01,7.241988963070710383e+00
4.710000000000000298e-01,6.875455228251906803e+00,-1.196820099760059902e-01,6.740933603986783318e+00
4.720000000000000306e-01,6.681532518755554761e+00,-3.115100269261117938e-01,6.496655606168255659e+00
4.730000000000000315e-01,6.566827894655472342e+00,-4.484083231735257469e-01,6.304814390615269382e+00
4.740000000000000324e-01,6.570817842296088784e+00,-4.554175709616344880e-01,6.267275305921714335e+00
4.750000000000000333e-01,6.412685374593598553e+00,-5.980953200079284215e-01,6.128537968976874417e+00
4.760000000000000342e-01,6.398124407926634838e+00,-6.433042405174993483e-01,6.046027643183928824e+00
4.770000000000000351e-01,6.485756744386041106e+00,-5.672300976935950034e-01,6.106836980732324172e+00
4.780000000000000360e-01,6.472662629341642493e+00,-5.834298621425765274e-01,6.085610788995459153e+00
4.790000000000000369e-01,6.742521895223482886e+00,-3.614285172001214241e-01,6.256336391683116283e+00
4.799999999999999822e-01,6.582332425986876956e+00,-4.836899897328699183e-01,6.172832685858143265e+00
4.809999999999999831e-01,6.444155776624160836e+00,-6.019246461346633437e-01,6.075365800309366016e+00
4.819999999999999840e-01,6.508338517965510661e+00,-5.441055106173753320e-01,6.127643011025438291e+00
4.829999999999999849e-01,6.319225949893483296e+00,-6.887640357349107401e-01,6.028256065344850256e+00
4.839999999999999858e-01,6.321580373698659550e+00,-6.974128995215913562e-01,6.009417314766585250e+00
4.849999999999999867e-01,6.342173121957713100e+00,-6.865487105332995776e-01,6.011362274332437750e+00
4.859999999999999876e-01,6.390711963320958588e+00,-6.358865833319718996e-01,6.064953066113979219e+00
4.869999999999999885e-01,6.800802701048544563e+00,-2.919703148748004629e-01,6.343496467043701514e+00
4.879999999999999893e-01,6.681645209473336067e+00,-3.970444764108651547e-01,6.253303687708332781e+00
4.889999999999999902e-01,6.449359194560718045e+00,-5.947064457799324799e-01,6.091060546146321641e+00
4.899999999999999911e-01,6.772063729023213519e+00,-3.147410012997868267e-01,6.329078743820655717e+00
4.909999999999999920e-01,6.554139198147100664e+00,-4.878013019262256167e-01,6.201671958243528238e+00
4.919999999999999929e-01,6.173238912111465915e+00,-8.221017259823011347e-01,5.914758551881330817e+00
4.929999999999999938e-01,6.526113533081416840e+00,-5.161171862882439898e-01,6.174638513397604278e+00
4.939999999999999947e-01,6.226176172122013242e+00,-7.715109146043661603e-01,5.964572790365146204e+00
4.949999999999999956e-01,6.550811011038687681e+00,-4.944790131669383748e-01,6.194785562784024258e+00
4.959999999999999964e-01,6.731860303481989050e+00,-3.466966540688557474e-01,6.310084841566664160e+00
4.969999999999999973e-01,6.565739545281497058e+00,-4.830223533299666805e-01,6.204338748338167342e+00
4.979999999999999982e-01,7.406560431238473186e+00,4.861196392592204152e-01,7.584496023024742684e+00
4.989999999999999991e-01,7.230320571268599394e+00,2.474788393469809500e-01,7.173320069270058497e+00
5.000000000000000000e-01,6.687222273658309568e+00,-2.714243537453012167e-01,6.612125140611889051e+00
5.010000000000000009e-01,6.725136792794771168e+00,-2.782977714583124706e-01,6.520452338944470405e+00
5.020000000000000018e-01,6.329328263405956889e+00,-6.398627369815400590e-01,6.169179893713016227e+00
5.030000000000000027e-01,6.138201844783305994e+00,-8.203070092293958115e-01,5.985210470905286684e+00
5.040000000000000036e-01,6.768846286687111302e+00,-2.847074731035609263e-01,6.417470667637778625e+00
5.050000000000000044e-01,6.542766234203397424e+00,-4.870997830914501336e-01,6.234061352732574335e+00
5.060000000000000053e-01,6.632823195466913013e+00,-4.202917147022459110e-01,6.275096767354286342e+00
5.070000000000000062e-01,6.739999721661506626e+00,-3.396906283644833269e-01,6.327925604842690177e+00
5.080000000000000071e-01,7.735428522672236795e+00,8.470726804532959786e-01,8.042309036416991574e+00
5.090000000000000080e-01,7.246194416903031232e+00,2.986816091368817982e-01,7.302398794315867470e+00
5.100000000000000089e-01,6.852286723156522541e+00,-1.127340921700400872e-01,6.793541989158589978e+00
5.110000000000000098e-01,6.551655394922405229e+00,-3.980532691317325011e-01,6.475407431113777257e+00
5.120000000000000107e-01,6.635607657558849404e+00,-3.605959113185183140e-01,6.437539506119587251e+00
5.130000000000000115e-01,6.573205969584363650e+00,-4.301804865645773579e-01,6.343652489515015702e+00
5.140000000000000124e-01,6.502984059945918993e+00,-5.005852494311118228e-01,6.263055204271877230e+00
5.150000000000000133e-01,6.817986168252553547e+00,-2.489802351767412825e-01,6.445573131435111236e+00
5.160000000000000142e-01,6.624820699831241555e+00,-4.177099504944033481e-01,6.298216904454819520e+00
5.170000000000000151e-01,6.597721496322732193e+00,-4.404018404723027413e-01,6.278471969300761124e+00
5.180000000000000160e-01,6.834166585476562084e+00,-2.374327954366088900e-01,6.445203432662551357e+00
5.190000000000000169e-01,6.387109127638542105e+00,-6.111272943888168552e-01,6.145892604520883928e+00
5.200000000000000178e-01,6.478976017663966580e+00,-5.254327602690899157e-01,6.226457527435431238e+00
5.210000000000000187e-01,6.442978196393302603e+00,-5.609910447864077110e-01,6.192404527264491421e+00
5.220000000000000195e-01,6.304488769356824562e+00,-6.695533039755605653e-01,6.114859139461228388e+00
5.230000000000000204e-01,6.515000462568948159e+00,-5.015649248981566277e-01,6.241438797442608433e+00
5.240000000000000213e-01,6.493107345044106360e+00,-5.304823578085419156e-01,6.206637443335806914e+00
5.250000000000000222e-01,6.650860415335068332e+00,-3.823343476311643063e-01,6.346347476112359942e+00
5.260000000000000231e-01,6.826401184514026887e+00,-2.443596112114693741e-01,6.447950811769735502e+00
5.270000000000000240e-01,6.635396524469024726e+00,-4.031318099056115933e-01,6.322634087561281646e+00
5.280000000000000249e-01,6.749369176931834247e+00,-2.851758240193862370e-01,6.445825601841640662e+00
5.290000000000000258e-01,6.715470102757442383e+00,-3.228342300159984801e-01,6.405690008172087779e+00
5.300000000000000266e-01,6.452043932212186306e+00,-5.374750973940772836e-01,6.241147269129784902e+00
5.310000000000000275e-01,6.220547586797366968e+00,-7.466088986475670763e-01,6.055720212474524189e+00
5.320000000000000284e-01,6.632949198208780928e+00,-3.918717826262621551e-01,6.354169063438646958e+00
5.330000000000000293e-01,6.450441513551194106e+00,-5.454442472083421700e-01,6.230940692201915709e+00
5.340000000000000302e-01,6.601431026331856522e+00,-4.269750751723100368e-01,6.318331609255838366e+00
5.350000000000000311e-01,6.941166278540651824e+00,-1.283610962449685533e-01,6.577300137399840985e+00
5.360000000000000320e-01,6.528881153526626235e+00,-4.796034931466620077e-01,6.288610505020175268e+00
5.370000000000000329e-01,6.660133844038042206e+00,-3.691688910164637183e-01,6.379771697522082619e+00
5.380000000000000338e-01,6.566445759968461360e+00,-4.383907627946981855e-01,6.336595737220769742e+00
5.390000000000000346e-01,6.408632833614444912e+00,-5.607563324262234694e-01,6.251292570161556483e+00
5.400000000000000355e-01,6.713111541982457631e+00,-3.010063713108034333e-01,6.467964449481564237e+00
5.410000000000000364e-01,6.501079545412063787e+00,-4.819693255255322883e-01,6.319757040998479347e+00
5.420000000000000373e-01,6.814225060336542406e+00,-2.043391510236640951e-01,6.563594378798912388e+00
5.430000000000000382e-01,6.870649704674401725e+00,-1.766207354349584313e-01,6.564365175084860837e+00
5.440000000000000391e-01,6.773667207417793712e+00,-2.512168686383057237e-01,6.513950168372802274e+00
5.450000000000000400e-01,6.612687178906214491e+00,-4.008071285378409510e-01,6.377580580696516677e+00
5.460000000000000409e-01,7.018536755949687844e+00,-3.694102562696832681e-02,6.701330182482312381e+00
5.470000000000000417e-01,6.739658633121652365e+00,-2.586852444251279692e-01,6.538622777608374292e+00
5.480000000000000426e-01,6.714721780201760026e+00,-2.837659221413060262e-01,6.515336927961367763e+00
5.490000000000000435e-01,6.550386181471401059e+00,-4.257168058651145115e-01,6.397744899187034484e+00
5.500000000000000444e-01,6.631999775360158722e+00,-3.380186193981416509e-01,6.493536986912203268e+00
5.510000000000000453e-01,6.861777344252182331e+00,-1.548423267279556426e-01,6.632156099625327705e+00
5.520000000000000462e-01,6.790131163814372428e+00,-2.198885168423501957e-01,6.575788339459247567e+00
5.530000000000000471e-01,6.789826669276087578e+00,-2.197837700155472751e-01,6.578414603183640352e+00
5.540000000000000480e-01,6.981105048577295413e+00,-6.648965317014837728e-02,6.695869998283163760e+00
5.550000000000000488e-01,6.833311005280702233e+00,-1.791130118051870168e-01,6.620595496245348599e+00
5.560000000000000497e-01,6.903364398590884576e+00,-1.063713248437822972e-01,6.698235583008340654e+00
5.570000000000000506e-01,6.879790026567531136e+00,-1.275645477187688226e-01,6.681664789844551144e+00
5.580000000000000515e-01,6.648767660373915867e+00,-3.070565084871099137e-01,6.555974867257247318e+00
5.590000000000000524e-01,6.794743212597622595e+00,-1.809737826944246009e-01,6.664465867409968602e+00
5.600000000000000533e-01,6.697290472242025672e+00,-2.762713679992550575e-01,6.573653060470450171e+00
5.610000000000000542e-01,6.805241550278775975e+00,-1.692561756182906496e-01,6.682089506855614758e+00
5.620000000000000551e-01,6.925096282250783553e+00,-8.503106150689190845e-02,6.733068593058598950e+00
5.630000000000000560e-01,6.945752207049451954e+00,-6.739578539710425198e-02,6.750092135688569250e+00
5.640000000000000568e-01,6.940265994408036931e+00,-5.916354255372822946e-02,6.774475891459118770e+00
5.650000000000000577e-01,7.042992071974589763e+00,2.298110826704449078e-02,6.838495075291390890e+00
5.660000000000000586e-01,6.918291515934414271e+00,-6.641280326550189073e-02,6.786885374716612240e+00
5.670000000000000595e-01,6.810637949577878381e+00,-1.489639525436810830e-01,6.731934465621731256e+00
5.680000000000000604e-01,6.788735252326102199e+00,-1.780471529864981750e-01,6.698187438675700101e+00
5.690000000000000613e-01,6.753831821702334537e+00,-1.923967425970803391e-01,6.706925765718139587e+00
5.700000000000000622e-01,6.726115951265678738e+00,-2.278570145742764286e-01,6.666271062168089401e+00
5.710000000000000631e-01,6.848741815481462325e+00,-1.347608604110634989e-01,6.732401817611187944e+00
5.720000000000000639e-01,6.844829801710880623e+00,-1.257504648646922407e-01,6.756911675610592027e+00
5.730000000000000648e-01,8.253355815155710928e+00,1.424193699212574327e+00,8.820098911426185850e+00
5.740000000000000657e-01,7.883499425551734774e+00,9.798591731550497785e-01,8.158600461291010575e+00
5.750000000000000666e-01,7.212175292894031031e+00,3.310267955025863462e-01,7.446746276496313044e+00
5.760000000000000675e-01,7.142981212181460648e+00,2.205979458030531415e-01,7.244247059104422348e+00
5.769999999999999574e-01,7.024686024238759430e+00,1.042740215731347564e-01,7.100092571829468291e+00
5.779999999999999583e-01,6.746221085740936374e+00,-1.512814026942851109e-01,6.850402242383753837e+00
5.789999999999999591e-01,7.018946067207015638e+00,6.310309609722994373e-02,6.997138622139575936e+00
5.799999999999999600e-01,7.073594380135219239e+00,1.127594762560705788e-01,7.037186287891357139e+00
5.809999999999999609e-01,7.127658659055668089e+00,1.493410281969065612e-01,7.054510961916216516e+00
5.819999999999999618e-01,7.347810702123113380e+00,3.278239705975173335e-01,7.191271495422893345e+00
5.829999999999999627e-01,7.077076354217319398e+00,1.013502023094456084e-01,7.007556753847656417e+00
5.839999999999999636e-01,7.163591801311496532e+00,1.789177537494835990e-01,7.078767359678769466e+00
5.849999999999999645e-01,7.253282541940707873e+00,2.653204529624396679e-01,7.164461608101147405e+00
5.859999999999999654e-01,7.015459828785001406e+00,7.931821318131214438e-02,7.032846045858484274e+00
5.869999999999999662e-01,7.083573570072186243e+00,1.313745583752672363e-01,7.071395773632187520e+00
5.879999999999999671e-01,6.957625535315759890e+00,2.038730697673080128e-02,6.977902610484497892e+00
5.889999999999999680e-01,7.227920896593414746e+00,2.705291135365084365e-01,7.210404638649080766e+00
5.899999999999999689e-01,7.284990881376972816e+00,2.967500559625938505e-01,7.208268727965658762e+00
5.909999999999999698e-01,7.206432404921870649e+00,2.321524538629823331e-01,7.160100542987215100e+00
5.919999999999999707e-01,7.237577611554833368e+00,2.654335949551289153e-01,7.197960457342387208e+00
5.929999999999999716e-01,7.413328389499025839e+00,4.143671055196161412e-01,7.322491782664768856e+00
5.939999999999999725e-01,7.094181047540927487e+00,1.548379456405240551e-01,7.124966085265705296e+00
5.949999999999999734e-01,7.136540695292163505e+00,2.002009733109463563e-01,7.175685936950038979e+00
5.959999999999999742e-01,7.314105623807334311e+00,3.575800950634379638e-01,7.315198838529118675e+00
5.969999999999999751e-01,6.835048757563664701e+00,-5.321619337075825240e-02,6.974946852028749866e+00
5.979999999999999760e-01,7.115714973194269710e+00,1.836101669283825288e-01,7.170179232800272473e+00
5.989999999999999769e-01,7.319957242605743986e+00,3.584075124928062239e-01,7.317737718104250888e+00
5.999999999999999778e-01,7.336973941084413475e+00,3.832028490354602024e-01,7.352476004984105806e+00
6.009999999999999787e-01,7.403798179378715538e+00,4.245096623040917061e-01,7.370386042715615815e+00
6.019999999999999796e-01,8.190461092976899948e+00,1.395522681030508583e+00,8.843537631888368722e+00
6.029999999999999805e-01,7.723073900977778017e+00,8.931723763511790759e-01,8.184028401177513956e+00
6.039999999999999813e-01,7.723304199433385975e+00,8.255941373876647393e-01,7.975274757242388546e+00
6.049999999999999822e-01,7.350177002770034385e+00,4.750446373242817599e-01,7.603531205624801004e+00
6.059999999999999831e-01,7.159775250958798409e+00,2.849841908468351281e-01,7.387968873944183557e+00
6.069999999999999840e-01,7.399321438853122324e+00,4.703070256184984643e-01,7.504076957795596137e+00
6.079999999999999849e-01,7.058534844218074866e+00,1.666351841011304014e-01,7.229087371896138592e+00
6.089999999999999858e-01,7.395459489699128142e+00,4.498091336925231221e-01,7.454032660801897414e+00
6.099999999999999867e-01,7.595315084137768125e+00,6.159862113787339943e-01,7.584427585947959294e+00
6.109999999999999876e-01,7.455092192121600903e+00,5.073759826731184530e-01,7.506741719613903463e+00
6.119999999999999885e-01,7.510067074274719978e+00,5.465681514616534953e-01,7.528168761161083467e+00
6.129999999999999893e-01,7.299808816926247168e+00,3.692884943909857665e-01,7.385329090008240449e+00
6.139999999999999902e-01,7.377124415179033612e+00,4.611038009245350677e-01,7.493040720786759756e+00
6.149999999999999911e-01,7.272511142433163656e+00,3.537785077108128173e-01,7.384334005934253931e+00
6.159999999999999920e-01,7.105996143343119797e+00,2.124956034461193966e-01,7.269546595940528988e+00
6.169999999999999929e-01,7.150181625414069764e+00,2.507895748620169174e-01,7.303144141746800599e+00
6.179999999999999938e-01,7.442274729806086953e+00,4.881160881813192964e-01,7.486829788794196361e+00
6.189999999999999947e-01,7.444803276243877832e+00,4.995735434548779774e-01,7.508271542645494456e+00
6.199999999999999956e-01,7.320375863243794967e+00,3.826059448799304930e-01,7.399747911166958403e+00
6.209999999999999964e-01,7.531130544576579489e+00,5.660603157112488182e-01,7.556814059571563824e+00
6.219999999999999973e-01,7.419431583471619795e+00,4.936814863924355867e-01,7.524594634069846855e+00
6.229999999999999982e-01,7.321387426191206416e+00,4.050816245208025412e-01,7.446204849724225916e+00
6.239999999999999991e-01,7.331600239241300443e+00,4.191671404723457117e-01,7.464854765890823529e+00
6.250000000000000000e-01,7.095911320729818783e+00,2.250337559191325221e-01,7.312894013200049947e+00
6.260000000000000009e-01,7.541870958006319015e+00,6.051657581675544684e-01,7.627740445796719726e+00
6.270000000000000018e-01,7.405421089184657468e+00,4.791009695857670336e-01,7.512527419772633941e+00
6.280000000000000027e-01,7.455896314352385978e+00,5.249624244135204787e-01,7.554166136572274759e+00
6.290000000000000036e-01,7.754654945642551311e+00,7.700460007260268025e-01,7.745889857737305206e+00
6.300000000000000044e-01,7.411918872859779128e+00,4.746809389696909909e-01,7.498135077131857784e+00
6.310000000000000053e-01,7.424537940661266155e+00,4.930141446984070419e-01,7.522345749903658785e+00
6.320000000000000062e-01,7.457817334489655003e+00,5.168606904284163139e-01,7.536846910818398193e+00
6.330000000000000071e-01,7.265713196769778115e+00,3.691471028807826182e-01,7.433535632991985054e+00
6.340000000000000080e-01,7.236222997737694840e+00,3.384723286658634089e-01,7.401612588759625133e+00
6.350000000000000089e-01,7.324174751373533354e+00,4.069584403553691554e-01,7.450494246100228146e+00
6.360000000000000098e-01,7.166292987258009006e+00,2.748737714455177228e-01,7.343993166802189165e+00
6.370000000000000107e-01,7.644132932466132679e+00,6.811969375286915929e-01,7.678511866891009063e+00
6.380000000000000115e-01,7.582693363561756605e+00,6.194383442508933912e-01,7.616072980409029469e+00
6.390000000000000124e-01,7.460855588620118439e+00,5.212528794216354511e-01,7.541105661352959011e+00
6.400000000000000133e-01,7.490059321690662131e+00,5.334136580743876754e-01,7.535717198952901263e+00
6.410000000000000142e-01,8.208363972046207380e+00,1.385135208054426581e+00,8.755764148837501537e+00
6.420000000000000151e-01,7.527753229222002851e+00,7.124744805486349364e-01,7.997749028851795394e+00
6.430000000000000160e-01,7.562298613381139845e+00,6.858749961764168956e-01,7.853088488387555799e+00
6.440000000000000169e-01,7.474573007160519644e+00,5.936478864380847487e-01,7.721488110295772422e+00
6.450000000000000178e-01,7.383808966493091930e+00,4.856346289742750066e-01,7.574698862390156329e+00
6.460000000000000187e-01,7.708843406649007690e+00,7.461357291842534156e-01,7.757208921283822889e+00
6.470000000000000195e-01,7.696269050387336108e+00,7.380871149866213843e-01,7.745097997561434688e+00
6.480000000000000204e-01,7.609071544184237368e+00,6.410687196116878761e-01,7.632600377923805191e+00
6.490000000000000213e-01,7.578004459197229536e+00,6.090168393640419398e-01,7.595659099192816122e+00
6.500000000000000222e-01,7.173594032005007115e+00,2.674573351460175497e-01,7.314087049402581364e+00
6.510000000000000231e-01,7.487824132563203783e+00,5.409505830291525541e-01,7.543002908153997765e+00
6.520000000000000240e-01,7.432832141356604971e+00,5.028606983103863781e-01,7.520534231036596573e+00
6.530000000000000249e-01,7.252993917303117932e+00,3.525017799803339402e-01,7.398319156395600338e+00
6.540000000000000258e-01,7.300393063152402107e+00,3.714728268075546680e-01,7.387473961234867659e+00
6.550000000000000266e-01,7.375227553845158823e+00,4.408571448577857099e-01,7.449969232109669548e+00
6.560000000000000275e-01,7.237651198744092795e+00,3.079290734390484063e-01,7.320201852611504911e+00
6.570000000000000284e-01,7.519815625491762745e+00,5.384530455169376228e-01,7.497551138069546539e+00
6.580000000000000293e-01,7.279269477220438489e+00,3.369048820390499466e-01,7.333422224624135843e+00
6.590000000000000302e-01,7.493785086373168092e+00,5.271841552110835272e-01,7.497844119500947535e+00
6.600000000000000311e-01,7.337345813383919335e+00,3.849709895811412319e-01,7.368195961953888151e+00
6.610000000000000320e-01,7.007601506614312470e+00,1.130149698580551892e-01,7.152329376333842248e+00
6.620000000000000329e-01,7.182361986383168251e+00,2.593542472415354405e-01,7.268513198005734033e+00
6.630000000000000338e-01,6.970214052890229439e+00,6.497141323079216879e-02,7.090128210249071472e+00
6.640000000000000346e-01,6.905693461111755305e+00,1.238674631791314429e-02,7.047681659880138838e+00
6.650000000000000355e-01,7.551675165946809543e+00,5.650886372777795819e-01,7.505277859744092339e+00
6.660000000000000364e-01,7.271214720524699082e+00,3.118388972301809337e-01,7.277387403521436759e+00
6.670000000000000373e-01,7.294177727303984504e+00,3.353403432650770566e-01,7.299552882804162479e+00
6.680000000000000382e-01,7.329875139965721154e+00,3.522781272736896230e-01,7.295836239728184403e+00
6.690000000000000391e-01,7.186321481021827218e+00,2.450892313427778524e-01,7.223099536959982636e+00
6.700000000000000400e-01,7.035774722229052536e+00,1.161021202609474889e-01,7.113744379048830169e+00
6.710000000000000409e-01,7.038921323053648038e+00,1.116461639222206398e-01,7.099745715474248264e+00
6.720000000000000417e-01,6.979981003572730103e+00,7.627130981042512525e-02,7.085986409374107176e+00
6.730000000000000426e-01,6.916131681102784867e+00,1.975607365014508954e-03,6.999287346268524779e+00
6.740000000000000435e-01,7.215434669451388672e+00,2.553694056484332453e-01,7.204810626728141543e+00
6.750000000000000444e-01,7.250607691618117023e+00,2.925796027478522188e-01,7.242095049030957910e+00
6.760000000000000453e-01,7.402168009678540272e+00,4.057222961916963078e-01,7.314858276639205847e+00
6.770000000000000462e-01,7.216943913821187273e+00,2.418961430172676952e-01,7.170472065803624950e+00
6.780000000000000471e-01,7.289556801239043260e+00,3.235940276594727605e-01,7.259303518938172495e+00
6.790000000000000480e-01,7.112635475886819769e+00,1.544212317706489257e-01,7.095937120978659252e+00
6.800000000000000488e-01,6.857784310450888654e+00,-5.634297753997896674e-02,6.927329750360133431e+00
6.810000000000000497e-01,7.101439234503024167e+00,1.678091220282214302e-01,7.130063626797520371e+00
6.820000000000000506e-01,7.270226483959319808e+00,2.988506890416018358e-01,7.221461520442383097e+00
6.830000000000000515e-01,6.979400661112162396e+00,4.323908117755998620e-02,6.999186214015177043e+00
6.840000000000000524e-01,7.140109022330110911e+00,1.693836936410735849e-01,7.088911888423380603e+00
6.850000000000000533e-01,8.232260229925238093e+00,1.409095007930078580e+00,8.820246679554944791e+00
6.860000000000000542e-01,7.705739441199469297e+00,8.398136596878926774e-01,8.070304487973663399e+00
6.870000000000000551e-01,7.549616054568765833e+00,6.223793721128875189e-01,7.707240046659062926e+00
6.880000000000000560e-01,7.453057912033754562e+00,5.014697135731889244e-01,7.510172676506289058e+00
6.890000000000000568e-01,7.120532133920281836e+00,2.007498567312075710e-01,7.209188182329982375e+00
6.900000000000000577e-01,7.220853018822378289e+00,2.638358623494531097e-01,7.214955422761094361e+00
6.910000000000000586e-01,7.025047775145130124e+00,8.550744476620705803e-02,7.041307546070822099e+00
6.920000000000000595e-01,7.108862777567354740e+00,1.567971953001969232e-01,7.091714119792584370e+00
6.930000000000000604e-01,7.337189351370984269e+00,3.316122008865306503e-01,7.207370708817218308e+00
6.940000000000000613e-01,7.164914193153765432e+00,1.799781924391816723e-01,7.072395271795671512e+00
6.950000000000000622e-01,7.169007442222499193e+00,1.750605807422900839e-01,7.053183779291407163e+00
6.960000000000000631e-01,7.154329925371450294e+00,1.500111294319308175e-01,7.016373366069482920e+00
6.970000000000000639e-01,7.016172481367551228e+00,5.043150575238015271e-02,6.954036045992499027e+00
6.980000000000000648e-01,7.003583336884801724e+00,3.868270475750195531e-02,6.941847559038683002e+00
6.990000000000000657e-01,7.056094038692473092e+00,8.682716082275832026e-02,6.984403132837483597e+00
7.000000000000000666e-01,6.814603000066481009e+00,-1.120836049546500429e-01,6.826909228366455196e+00
7.010000000000000675e-01,6.931356974300436846e+00,-2.765272694560781327e-02,6.877914579456600563e+00
7.020000000000000684e-01,6.872869799919762990e+00,-8.730220490306384029e-02,6.816063025238103812e+00
7.030000000000000693e-01,6.877842945254602824e+00,-8.191472419119132098e-02,6.820889322692229584e+00
7.039999999999999591e-01,7.344900555153308197e+00,3.122968026898580440e-01,7.141345014570315008e+00
7.049999999999999600e-01,7.266681826893245599e+00,2.507324343680510936e-01,7.095592447795376678e+00
7.059999999999999609e-01,7.031551659128946419e+00,4.724073435517879560e-02,6.922965189915132989e+00
7.069999999999999618e-01,6.933527390995186224e+00,-4.901637041711791321e-02,6.827771005069452670e+00
7.079999999999999627e-01,6.874164037081111900e+00,-7.755782607999625600e-02,6.829418144161170545e+00
7.089999999999999636e-01,6.802360866774015413e+00,-1.423028139624663568e-01,6.771170039467143908e+00
7.099999999999999645e-01,6.936585459456486191e+00,-3.300967663616684311e-02,6.855043395693903641e+00
7.109999999999999654e-01,7.336760438769584169e+00,4.768616370218598521e-01,7.647054111972945378e+00
7.119999999999999662e-01,7.386287173000127382e+00,4.451742740897035033e-01,7.465798647548348654e+00
7.129999999999999671e-01,7.412641975792982230e+00,4.258222072632759092e-01,7.359222483561314476e+00
7.139999999999999680e-01,7.341211331024183551e+00,3.534366037806096483e-01,7.260672223109913226e+00
7.149999999999999689e-01,7.186329070982497846e+00,1.875662057666309945e-01,7.068525331329151840e+00
7.159999999999999698e-01,7.044056221883652213e+00,6.676069419455904486e-02,6.959946809594010908e+00
7.169999999999999707e-01,6.736869902297188517e+00,-1.960499649689700363e-01,6.735970217900172585e+00
7.179999999999999716e-01,7.096291588843853582e+00,1.139557791585434493e-01,6.993292288620661878e+00
7.189999999999999725e-01,6.654370675636378962e+00,-2.699794117292957929e-01,6.665484669933500861e+00
7.199999999999999734e-01,6.816076715325469770e+00,-1.300531234680402104e-01,6.782658343157463854e+00
7.209999999999999742e-01,7.101907613520391571e+00,1.027826047445072194e-01,6.960928495869736388e+00
7.219999999999999751e-01,6.973221081577721137e+00,-4.584690225380412890e-03,6.875307060320120733e+00
7.229999999999999760e-01,7.478227547784094043e+00,5.462481005638255560e-01,7.610688615026510284e+00
7.239999999999999769e-01,7.448638159346423038e+00,4.697175093745173946e-01,7.433410660247095514e+00
7.249999999999999778e-01,6.975087006129808920e+00,4.092635828418111910e-02,7.017047580483480651e+00
7.259999999999999787e-01,7.086530444372693971e+00,1.200480392378335814e-01,7.044569329627902832e+00
7.269999999999999796e-01,6.898145733108661304e+00,-4.792762270880804309e-02,6.885670654582034089e+00
7.279999999999999805e-01,7.021874421584545445e+00,7.513518223374715532e-02,7.001583274204623564e+00
7.289999999999999813e-01,6.945831446935700093e+00,-1.609370309352369313e-02,6.891652243604458938e+00
7.299999999999999822e-01,6.986315351136807905e+00,2.203120145603893604e-02,6.925729402000285084e+00
7.309999999999999831e-01,6.932399148074731343e+00,-3.129201131106659067e-02,6.872445598920838172e+00
7.319999999999999840e-01,7.109698842208986846e+00,1.046449428605106396e-01,6.967180919740647127e+00
7.329999999999999849e-01,7.234720145516803314e+00,2.312458218309229319e-01,7.095050218394275632e+00
7.339999999999999858e-01,6.969847832954250144e+00,-5.497568989398682326e-03,6.887725716544887078e+00
7.349999999999999867e-01,7.218112038867190883e+00,2.170197581094436279e-01,7.085850207656158695e+00
7.359999999999999876e-01,6.741571425315262545e+00,-1.827882773206251921e-01,6.764191207935978944e+00
7.369999999999999885e-01,6.933933530214392960e+00,-1.395990222507115588e-02,6.910962974296380068e+00
7.379999999999999893e-01,6.951976963513691210e+00,6.334391400048267062e-04,6.923642168544992259e+00
7.389999999999999902e-01,6.849017911122571078e+00,-8.149862778169271460e-02,6.863929929590255163e+00
7.399999999999999911e-01,7.148043114292142342e+00,1.615980760246316650e-01,7.052745864027946787e+00
7.409999999999999920e-01,7.156375319331014673e+00,1.661455395890387710e-01,7.055209111650107445e+00
7.419999999999999929e-01,7.317879426705400370e+00,3.165180364933212198e-01,7.196201147862277381e+00
7.429999999999999938e-01,7.390278652606236953e+00,3.660386308060018523e-01,7.224642636535699936e+00
7.439999999999999947e-01,7.146468340444060985e+00,1.684790206941532975e-01,7.075179308387132160e+00
7.449999999999999956e-01,7.076470738003526328e+00,1.182743120287619437e-01,7.046656733784512738e+00
7.459999999999999964e-01,7.099618119380307846e+00,1.353618527300231300e-01,7.059614872345045811e+00
7.469999999999999973e-01,6.907087736380945309e+00,-1.425550214262007870e-02,6.954879654651199061e+00
7.479999999999999982e-01,6.928943527312130257e+00,-2.463935261081823258e-03,6.958612186743597050e+00
7.489999999999999991e-01,7.164994552242790249e+00,1.971218486398096936e-01,7.123771349303003930e+00
7.500000000000000000e-01,7.078187115751763514e+00,1.297285909858449660e-01,7.077861614536733903e+00
7.510000000000000009e-01,7.433874698132667547e+00,4.309284829425615304e-01,7.326671125394828010e+00
7.520000000000000018e-01,7.232544151402899857e+00,2.518836177674455001e-01,7.172034407599838346e+00
7.530000000000000027e-01,7.173346790150802121e+00,2.189736342807958036e-01,7.167556569143060052e+00
7.540000000000000036e-01,7.337629876702024490e+00,3.598452773414187456e-01,7.287180939534124491e+00
7.550000000000000044e-01,7.060320207140288851e+00,1.307157706732758606e-01,7.108412232956520249e+00
7.560000000000000053e-01,7.193771752531363362e+00,2.636749661106537745e-01,7.243073209110849398e+00
7.570000000000000062e-01,7.223423365479352931e+00,2.743262033664066735e-01,7.236928689821174210e+00
7.580000000000000071e-01,7.147884081340967199e+00,2.171731778930509060e-01,7.200373997213677768e+00
7.590000000000000080e-01,7.314122802608361340e+00,3.560172252854221231e-01,7.314039841849685253e+00
7.600000000000000089e-01,7.230815455697248595e+00,2.627218056721125627e-01,7.212974138465949814e+00
7.610000000000000098e-01,7.286692407440518160e+00,3.294292915985301828e-01,7.292728169022771212e+00
7.620000000000000107e-01,7.209374954517936196e+00,2.533401954586436688e-01,7.220078551938591715e+00
7.630000000000000115e-01,7.244655031395565992e+00,2.909754344393621905e-01,7.262272067860418900e+00
7.640000000000000124e-01,7.007587178788518223e+00,1.051686407225939091e-01,7.129918315441626575e+00
7.650000000000000133e-01,7.219798892208441288e+00,2.885565466922710431e-01,7.286660137055389619e+00
7.660000000000000142e-01,7.253263082609333168e+00,3.271428339573258515e-01,7.332528860047261787e+00
7.670000000000000151e-01,6.977098986583455620e+00,8.610190321533861546e-02,7.128750930119669427e+00
7.680000000000000160e-01,7.126305589252326378e+00,1.954725565682481625e-01,7.200401856921199162e+00
7.690000000000000169e-01,7.529630221049372629e+00,5.639363853364409707e-01,7.536094396731789047e+00
7.700000000000000178e-01,7.356986204326619649e+00,4.069567182277031847e-01,7.396838806019353285e+00
7.710000000000000187e-01,7.519667957217158083e+00,5.409288334907698115e-01,7.504128165690548968e+00
7.720000000000000195e-01,7.468858424757436332e+00,5.210434631518361392e-01,7.517157962223271817e+00
7.730000000000000204e-01,7.265420950628975305e+00,3.426576622284730478e-01,7.365775958105181154e+00
7.740000000000000213e-01,7.341714906208313351e+00,4.132382776150634318e-01,7.432553504272680911e+00
7.750000000000000222e-01,6.964995541507005505e+00,9.736025186885745308e-02,7.179382300421823793e+00
7.760000000000000231e-01,7.321067710863607303e+00,4.025092705552145711e-01,7.435425967641491773e+00
7.770000000000000240e-01,7.423243960606453307e+00,4.877009006975425165e-01,7.505400241236235281e+00
7.780000000000000249e-01,7.446512968352594797e+00,5.135509803892428504e-01,7.535545314183297094e+00
7.790000000000000258e-01,7.532934102570308710e+00,5.668787240122590276e-01,7.557437491480886393e+00
7.800000000000000266e-01,7.436566852933331973e+00,4.879049388533549525e-01,7.497456196437214615e+00
7.810000000000000275e-01,7.663359785053065032e+00,7.044265614078325521e-01,7.705244091888940439e+00
7.820000000000000284e-01,7.605648575880087137e+00,6.457759565848297800e-01,7.647127646481574281e+00
7.830000000000000293e-01,7.252271038189626928e+00,3.543224665397995965e-01,7.419005211044125581e+00
7.840000000000000302e-01,7.073367815125057412e+00,1.991133356478699823e-01,7.288828177107231632e+00
7.850000000000000311e-01,7.452897315620569785e+00,5.298377316494237155e-01,7.572014086802347776e+00
7.860000000000000320e-01,7.294042670936273787e+00,4.001402315443665647e-01,7.472666651057942921e+00
7.870000000000000329e-01,7.364969681531998269e+00,4.449257042100203119e-01,7.492427570812665749e+00
7.880000000000000338e-01,7.542880816268713318e+00,5.919597242429698314e-01,7.609623368253765285e+00
7.890000000000000346e-01,7.427361723113677705e+00,5.004713789227268617e-01,7.543124492697018013e+00
7.900000000000000355e-01,7.648371852491806067e+00,6.854835907481857671e-01,7.693015344864406302e+00
7.910000000000000364e-01,7.523451971337476785e+00,5.850686528876385406e-01,7.617897836183744609e+00
7.920000000000000373e-01,7.361964968362844530e+00,4.610032936696297767e-01,7.531960714845721938e+00
7.930000000000000382e-01,7.469635384264309508e+00,5.482354665610232880e-01,7.599373617786556068e+00
7.940000000000000391e-01,7.268091662313551637e+00,3.818859049065225775e-01,7.468747931695541631e+00
7.950000000000000400e-01,7.254269947935183538e+00,3.687458354936145044e-01,7.456728422570722437e+00
7.960000000000000409e-01,7.658777968436485395e+00,7.088237007869867545e-01,7.732722802342824053e+00
7.970000000000000417e-01,7.467474308798534466e+00,5.441407096205460592e-01,7.594913556231971619e+00
7.980000000000000426e-01,7.590083106154593473e+00,6.421182663415767600e-01,7.668418108198228111e+00
7.990000000000000435e-01,7.769817815833441443e+00,7.943604747329058302e-01,7.793230064257910428e+00
8.000000000000000444e-01,7.356447405759244162e+00,4.464591431348927664e-01,7.510763029715860739e+00
8.010000000000000453e-01,7.512911311739385312e+00,5.840556803350013260e-01,7.629359446916084586e+00
8.020000000000000462e-01,7.405093646776258254e+00,4.961606968136553775e-01,7.561155589550615730e+00
8.030000000000000471e-01,7.236005744581592403e+00,3.639004765654086926e-01,7.465391963784772322e+00
8.040000000000000480e-01,7.393676254595630937e+00,4.867713999857891105e-01,7.553032059876004567e+00
8.050000000000000488e-01,7.350517791502461762e+00,4.478668229097687026e-01,7.517849461465938354e+00
8.060000000000000497e-01,7.280976427314579169e+00,3.814073356342726484e-01,7.453838872136516969e+00
8.070000000000000506e-01,7.741852487423328100e+00,7.683090668359440212e-01,7.766031927655344447e+00
8.080000000000000515e-01,7.586516541615328180e+00,6.377876523748136073e-01,7.659489142890936186e+00
8.090000000000000524e-01,7.465360684165398553e+00,5.289801007939929356e-01,7.562092362907203658e+00
8.100000000000000533e-01,7.418933245680728206e+00,4.813269054004021275e-01,7.512174275332303530e+00
8.110000000000000542e-01,7.464962244402029157e+00,5.504058475555235752e-01,7.603162565554085539e+00
8.120000000000000551e-01,7.155515281632004232e+00,2.699429991788229177e-01,7.350442026077267599e+00
8.130000000000000560e-01,7.417370441469310904e+00,5.020792696922268261e-01,7.551516750321326299e+00
8.140000000000000568e-01,7.133843831656228041e+00,2.590952864267373479e-01,7.347632352093594221e+00
8.150000000000000577e-01,7.169671714005195540e+00,2.656842494375100117e-01,7.323439544165824877e+00
8.160000000000000586e-01,7.463544966499133793e+00,5.219703905704110580e-01,7.540496593546304638e+00
8.170000000000000595e-01,7.405883927386748056e+00,4.730208163331234839e-01,7.498518162233665407e+00
8.180000000000000604e-01,7.649004836172025534e+00,6.705349663157962325e-01,7.648587782044599770e+00
8.190000000000000613e-01,7.506226380008922838e+00,5.560827121932243600e-01,7.560527505070082199e+00
8.200000000000000622e-01,7.079018066587968505e+00,1.818249059210741703e-01,7.237190625900246310e+00
8.210000000000000631e-01,7.421271190325636979e+00,4.803002692072525504e-01,7.489764492971237253e+00
8.220000000000000639e-01,7.231266224951107269e+00,3.286448534168642244e-01,7.374242034258523759e+00
8.230000000000000648e-01,7.237941325443805418e+00,3.263163000904591993e-01,7.360601774724959689e+00
8.240000000000000657e-01,7.316286683359005671e+00,3.782003697177868107e-01,7.383626536773197913e+00
8.250000000000000666e-01,7.232879458867861544e+00,3.100795335586947754e-01,7.328305689961853275e+00
8.260000000000000675e-01,7.456489950692657409e+00,4.888897338753395716e-01,7.459742499535585658e+00
8.270000000000000684e-01,7.527133313908956680e+00,5.458559094123655031e-01,7.500373457473517469e+00
8.280000000000000693e-01,7.356453286662371305e+00,4.083730526954045259e-01,7.393346668151862033e+00
8.290000000000000702e-01,7.336574297967112024e+00,3.789247233743370802e-01,7.351506764909539804e+00
8.300000000000000711e-01,7.112159108082675374e+00,1.909922792003321268e-01,7.197155729201650587e+00
8.310000000000000719e-01,7.006003988747637301e+00,1.079224205523875296e-01,7.134192796896562605e+00
8.320000000000000728e-01,7.103095851585085718e+00,1.758941475817569766e-01,7.169991241542329696e+00
8.329999999999999627e-01,6.990171479330579807e+00,8.032594198958238618e-02,7.088653503985791637e+00
8.339999999999999636e-01,7.326429219733467946e+00,3.703503925495957860e-01,7.329248746721001240e+00
8.349999999999999645e-01,7.458615896218742769e+00,4.628755402429635124e-01,7.378848630617843796e+00
8.359999999999999654e-01,7.256810769873323963e+00,2.900771913584553330e-01,7.231727976177315220e+00
8.369999999999999662e-01,7.252167233496118470e+00,2.741921525664994252e-01,7.201209536595358784e+00
8.379999999999999671e-01,7.124466597629491638e+00,1.558785792676467274e-01,7.088830905322870635e+00
8.389999999999999680e-01,7.043495055113689673e+00,1.066219225876018084e-01,7.067779442328994577e+00
8.399999999999999689e-01,7.178406671950595452e+00,2.184349510286336671e-01,7.152929323305338372e+00
8.409999999999999698e-01,7.043983104609338852e+00,1.010231377021240246e-01,7.048912593532612014e+00
8.419999999999999707e-01,6.812396098443111114e+00,-9.991257038888290420e-02,6.874962204682568689e+00
8.429999999999999716e-01,6.971480617796618873e+00,1.505894450786290917e-02,6.942108275030391518e+00
8.439999999999999725e-01,7.095783027659200215e+00,1.252252834740385234e-01,7.034382529522530625e+00
8.449999999999999734e-01,7.176394755854729191e+00,1.919983543711890894e-01,7.083520281008650166e+00
8.459999999999999742e-01,7.351987447012772847e+00,3.281904658542946773e-01,7.176477460783842410e+00
8.469999999999999751e-01,7.132454470095198396e+00,1.473316026882169893e-01,7.030423658151236488e+00
8.479999999999999760e-01,6.888938440511647165e+00,-7.156128248715061535e-02,6.832253178268116400e+00
8.489999999999999769e-01,6.855836564675521494e+00,-1.071120542649122293e-01,6.790324123785060451e+00
8.499999999999999778e-01,6.797597285014703061e+00,-1.396672957608289800e-01,6.779497943651911385e+00
8.509999999999999787e-01,6.782178038075306503e+00,-1.696167490587442150e-01,6.731040790508954430e+00
8.519999999999999796e-01,6.900290299295654073e+00,-7.561379738169794751e-02,6.796937507951181345e+00
8.529999999999999805e-01,6.795010169810227652e+00,-1.677968600777081654e-01,6.713838250132895702e+00
8.539999999999999813e-01,7.123610455362463512e+00,9.852541151336841052e-02,6.913856007505816414e+00
8.549999999999999822e-01,7.066430781940160166e+00,4.501630481891879393e-02,6.859980829095859711e+00
8.559999999999999831e-01,6.973041588853846839e+00,-3.224779499272559941e-02,6.794798143780318433e+00
8.569999999999999840e-01,6.984719685336215456e+00,-3.690034402547884979e-02,6.769767322089073502e+00
8.579999999999999849e-01,6.705508942119720928e+00,-2.698195398923253219e-01,6.579091180603845679e+00
8.589999999999999858e-01,6.740766787965951856e+00,-2.343634092174494699e-01,6.610699306903185857e+00
8.599999999999999867e-01,6.923800932823299448e+00,-8.570274921966671011e-02,6.720945449749209821e+00
8.609999999999999876e-01,6.787006886221965019e+00,-1.986471124292593371e-01,6.627818027807322210e+00
8.619999999999999885e-01,6.890295729044031425e+00,-1.252935420838778846e-01,6.667214883674277282e+00
8.629999999999999893e-01,6.953075027741745906e+00,-8.830577689631381733e-02,6.674403956760109224e+00
8.639999999999999902e-01,6.795772018072844922e+00,-2.212466999734039041e-01,6.561835198400795655e+00
8.649999999999999911e-01,6.915368344139333878e+00,-1.312982499124041857e-01,6.618166007366665937e+00
8.659999999999999920e-01,6.968972437243884599e+00,-7.855158050117283519e-02,6.666108528403801081e+00
8.669999999999999929e-01,6.560661628852342275e+00,-4.263388109683367011e-01,6.374924035631520880e+00
8.679999999999999938e-01,6.735448994467136963e+00,-2.809052024625465771e-01,6.487111732636877903e+00
8.689999999999999947e-01,6.627504398811630004e+00,-3.666685330380229368e-01,6.419668954315506326e+00
8.699999999999999956e-01,6.477443741672053612e+00,-5.012683862056817041e-01,6.296703340997259701e+00
8.709999999999999964e-01,6.622396172431317396e+00,-3.986412015395056629e-01,6.353215519846585835e+00
8.719999999999999973e-01,6.622752691636025091e+00,-3.963264182878114550e-01,6.353738213300442972e+00
8.729999999999999982e-01,6.871629076476223119e+00,-1.880515381532164854e-01,6.517703185339911442e+00
8.739999999999999991e-01,7.008907990672299526e+00,-8.314915867007743877e-02,6.586565062246765301e+00
8.750000000000000000e-01,6.527256290251085780e+00,-4.988221567368662512e-01,6.233253657251021096e+00
8.760000000000000009e-01,6.660113042256678995e+00,-3.854362994740574977e-01,6.323600727685705358e+00
8.770000000000000018e-01,6.552049688951865569e+00,-4.790228989186007813e-01,6.240974499073547399e+00
8.780000000000000027e-01,6.395332950911209124e+00,-5.992284177093282205e-01,6.153817548438452967e+00
8.790000000000000036e-01,6.368827457561715200e+00,-6.404850280469647217e-01,6.094403053721007879e+00
8.800000000000000044e-01,6.524682573378171035e+00,-5.019665217261414236e-01,6.212236145498506446e+00
8.810000000000000053e-01,6.585852013351451539e+00,-4.485728286799636755e-01,6.254565252512384710e+00
8.820000000000000062e-01,6.636033615026093457e+00,-4.337781340289714183e-01,6.230746093725263002e+00
8.830000000000000071e-01,6.634782649982907898e+00,-4.311122060082914764e-01,6.234165709286232371e+00
8.840000000000000080e-01,6.487615324041240861e+00,-5.653047910001519627e-01,6.109850168677322557e+00
8.850000000000000089e-01,6.728785213139247823e+00,-3.605856307830258012e-01,6.275088098861926866e+00
8.860000000000000098e-01,6.422618757357914987e+00,-6.128188015643912800e-01,6.073826510837056603e+00
8.870000000000000107e-01,6.137462146678679176e+00,-8.713202892718718839e-01,5.839088762051366288e+00
8.880000000000000115e-01,6.234943611929903540e+00,-7.906650956556356968e-01,5.900098052129170156e+00
8.890000000000000124e-01,6.097130856748600003e+00,-9.019005287497654511e-01,5.812693408979686005e+00
8.900000000000000133e-01,6.395664477366836742e+00,-6.574438609719415183e-01,6.000400951924337534e+00
8.910000000000000142e-01,6.574619367412744886e+00,-5.078349213184658595e-01,6.118067301738970620e+00
8.920000000000000151e-01,6.369678635365954023e+00,-6.883422939490133619e-01,5.959473265383023133e+00
8.930000000000000160e-01,6.730193801062021919e+00,-3.860014441527564455e-01,6.201197387038334341e+00
8.940000000000000169e-01,6.497941402584267223e+00,-5.838814684657951393e-01,6.035325840579605305e+00
8.950000000000000178e-01,6.192692673370213008e+00,-8.454199187625159873e-01,5.815213104004256728e+00
8.960000000000000187e-01,6.331094756406502100e+00,-7.301811269289094630e-01,5.905084095731759852e+00
8.970000000000000195e-01,6.192053021626480636e+00,-8.352247394982952322e-01,5.831914787897149566e+00
8.980000000000000204e-01,6.036550452543590239e+00,-9.787216639936099360e-01,5.698380927116950545e+00
8.990000000000000213e-01,6.380894964345113607e+00,-6.880720825083871395e-01,5.933374689438206673e+00
9.000000000000000222e-01,6.174802668015820117e+00,-8.659665455300603609e-01,5.781799228893106601e+00
9.010000000000000231e-01,6.577969237235932631e+00,-5.238183790841924869e-01,6.061132496756707511e+00
9.020000000000000240e-01,6.388039826027789303e+00,-7.049982264430229018e-01,5.886988241045569836e+00
9.030000000000000249e-01,6.228184360695566468e+00,-8.321932361219790408e-01,5.790822339264395602e+00
9.040000000000000258e-01,6.475452182346602470e+00,-6.203237467521066639e-01,5.965744786934915389e+00
9.050000000000000266e-01,6.177518158602509857e+00,-8.760298600733397167e-01,5.750800440807518399e+00
9.060000000000000275e-01,5.998480012949179319e+00,-1.020218404753170383e+00,5.640077762895774782e+00
9.070000000000000284e-01,6.111026182441119836e+00,-9.358239342400352934e-01,5.695018968198022336e+00
9.080000000000000293e-01,6.210209651918658480e+00,-8.393348978257620940e-01,5.787593849596839313e+00
9.090000000000000302e-01,6.183815020945327312e+00,-8.702706638208203005e-01,5.750978665919520338e+00
9.100000000000000311e-01,6.339911065490652753e+00,-7.558333300251391940e-01,5.822699960766520633e+00
9.110000000000000320e-01,6.221124451493594165e+00,-8.531435486593312856e-01,5.745889200640574401e+00
9.120000000000000329e-01,6.353165276842934972e+00,-7.422034197142273193e-01,5.834831447921818182e+00
9.130000000000000338e-01,6.535524104587945082e+00,-5.823318066009379734e-01,5.971397698108561691e+00
9.140000000000000346e-01,6.620038396035497819e+00,-3.394769457272353019e-01,6.547171392466951012e+00
9.150000000000000355e-01,6.403710080733655552e+00,-5.944822978329690200e-01,6.183844173140840894e+00
9.160000000000000364e-01,6.275190329818540746e+00,-7.397960060313452102e-01,5.979310568654048197e+00
9.170000000000000373e-01,5.969354897763873957e+00,-1.023369501873216958e+00,5.692111253111995062e+00
9.180000000000000382e-01,6.220701705675161008e+00,-8.354978435555369121e-01,5.800679555756836692e+00
9.190000000000000391e-01,6.083499911644913993e+00,-9.696116746257612551e-01,5.659955062284772076e+00
9.200000000000000400e-01,6.384167700782877652e+00,-7.062318508552372087e-01,5.880093727620824495e+00
9.210000000000000409e-01,6.536433047944345098e+00,-5.938451098023160846e-01,5.948947519758496227e+00
9.220000000000000417e-01,6.300822765858949737e+00,-7.899856112744013670e-01,5.790043366837759997e+00
9.230000000000000426e-01,6.277043575333765446e+00,-8.051890568582705798e-01,5.782070085281991290e+00
9.240000000000000435e-01,6.242462995016129668e+00,-8.395291485914156970e-01,5.746007570383805607e+00
9.250000000000000444e-01,5.808854516926873046e+00,-1.202547551273951854e+00,5.453629317399919074e+00
9.260000000000000453e-01,6.165119402610461208e+00,-8.882577007885462672e-01,5.726058093837398388e+00
9.270000000000000462e-01,6.085979858583013602e+00,-9.681152916358027882e-01,5.645658771853801383e+00
9.280000000000000471e-01,5.901388284826138531e+00,-1.126097200740791004e+00,5.514523626077362017e+00
9.290000000000000480e-01,6.423788346249073911e+00,-6.820038635700564900e-01,5.880606512741713310e+00
9.300000000000000488e-01,6.376201262682068105e+00,-7.286766998403777507e-01,5.835201731138822900e+00
9.310000000000000497e-01,6.191634291839307025e+00,-8.849696529925126232e-01,5.707592464600851123e+00
9.320000000000000506e-01,6.278070194174121710e+00,-8.205844319810231546e-01,5.750390834981466526e+00
9.330000000000000515e-01,6.217763453352163516e+00,-8.544192503303590369e-01,5.743544207005990998e+00
9.340000000000000524e-01,5.941736150921760995e+00,-1.090154231282968400e+00,5.548668506255002519e+00
9.350000000000000533e-01,6.279133839394622107e+00,-7.963781671333124423e-01,5.799438830375825304e+00
9.360000000000000542e-01,6.056222505491255070e+00,-9.796550773285004343e-01,5.656459372601457147e+00
9.370000000000000551e-01,6.026017433570464377e+00,-1.016790783894490513e+00,5.613101410435024086e+00
9.380000000000000560e-01,6.240194653602554986e+00,-8.406012308155218493e-01,5.752055221880162605e+00
9.390000000000000568e-01,6.327723002227750193e+00,-7.491715586562449625e-01,5.848179878092276240e+00
9.400000000000000577e-01,6.419955249185663959e+00,-6.799816184782505601e-01,5.895161092056888208e+00
9.410000000000000586e-01,6.402966539573129445e+00,-6.918877563088200455e-01,5.889209210317703835e+00
9.420000000000000595e-01,6.080458408918574698e+00,-9.585565952026748882e-01,5.679287636680300011e+00
9.430000000000000604e-01,6.152054786947462439e+00,-9.021950270088292534e-01,5.721356847788474198e+00
9.440000000000000613e-01,6.070207643076464876e+00,-9.624194727639668878e-01,5.683730229688574553e+00
9.450000000000000622e-01,5.944357762346720087e+00,-1.067444734508377513e+00,5.600535601075229408e+00
9.460000000000000631e-01,6.275443634333050191e+00,-7.929230100900220846e-01,5.819528297546326279e+00
9.470000000000000639e-01,6.124588582227064926e+00,-9.237098919540609465e-01,5.709872047670550010e+00
9.480000000000000648e-01,6.404671970669597592e+00,-6.810716100614198076e-01,5.916153282000836455e+00
9.490000000000000657e-01,6.468992704648996117e+00,-6.409884906849141473e-01,5.933110719216228901e+00
9.500000000000000666e-01,6.521827627832533558e+00,-5.730821907325004405e-01,6.017222501721860795e+00
9.510000000000000675e-01,6.269581747194422405e+00,-8.006277145012782315e-01,5.815531940032571789e+00
9.520000000000000684e-01,6.096224445912193701e+00,-9.512529123230384354e-01,5.688812305043111195e+00
9.530000000000000693e-01,5.890332306358580183e+00,-1.109366015535294236e+00,5.579668937486330194e+00
9.540000000000000702e-01,6.218342297428762322e+00,-8.248200743571763027e-01,5.821957187177233983e+00
9.550000000000000711e-01,6.115091711950792153e+00,-9.171754041748119146e-01,5.741717585282478886e+00
9.560000000000000719e-01,6.253159378209293351e+00,-7.883738948787928358e-01,5.862486016296729829e+00
9.570000000000000728e-01,6.494085113232021200e+00,-5.990312037353221486e-01,6.001489881110006586e+00
9.580000000000000737e-01,6.501027598152076870e+00,-5.887016836770330164e-01,6.016460367078209970e+00
9.590000000000000746e-01,6.467794034922741631e+00,-6.150621184030771182e-01,5.998235323037772737e+00
9.599999999999999645e-01,6.609217072585281016e+00,-4.979608747131370472e-01,6.092284030212010038e+00
9.609999999999999654e-01,6.334386561305115571e+00,-7.179906653901456659e-01,5.928329924161572784e+00
9.619999999999999662e-01,6.203926169164739157e+00,-8.283785776938754619e-01,5.839293922663872927e+00
9.629999999999999671e-01,6.524114854923608320e+00,-5.426945661113771191e-01,6.091755969017039085e+00
9.639999999999999680e-01,6.203331882316200918e+00,-8.115353193296510614e-01,5.876142285264375431e+00
9.649999999999999689e-01,6.177803246600554132e+00,-8.513787711436775485e-01,5.823269925198879982e+00
9.659999999999999698e-01,6.358678900388749611e+00,-6.990349791599266283e-01,5.948367792394389397e+00
9.669999999999999707e-01,6.499439748228962088e+00,-5.646863286876266930e-01,6.077589239007644473e+00
9.679999999999999716e-01,6.652701977674297495e+00,-4.472176404355202584e-01,6.160547520379167530e+00
9.689999999999999725e-01,6.535206238399388745e+00,-5.434939015481722313e-01,6.086771154802575801e+00
9.699999999999999734e-01,6.403283648809798834e+00,-6.450153307903615518e-01,6.016927787399106720e+00
9.709999999999999742e-01,6.508338645078555196e+00,-5.577835516016884654e-01,6.087608995717809890e+00
9.719999999999999751e-01,6.242662929272467132e+00,-7.746608960688484702e-01,5.920797734303079984e+00
9.729999999999999760e-01,6.311921727265909610e+00,-7.089251882289389073e-01,5.984272510704564674e+00
9.739999999999999769e-01,6.370916067627781842e+00,-6.732361170023084540e-01,5.997912361146309657e+00
9.749999999999999778e-01,6.325540218812331084e+00,-7.042790484013372598e-01,5.982451789231467032e+00
9.759999999999999787e-01,6.408745308215682002e+00,-6.465594881198883925e-01,6.015928221911220675e+00
9.769999999999999796e-01,6.820178252865676249e+00,-2.889248924081320169e-01,6.320999457141056155e+00
9.779999999999999805e-01,6.407536939316654134e+00,-6.425626981055313491e-01,6.027592423907516483e+00
9.789999999999999813e-01,6.572867500151808429e+00,-5.021630927708340408e-01,6.144280365345671235e+00
9.799999999999999822e-01,6.612625435538156182e+00,-4.542948345254389508e-01,6.201470077270217374e+00
9.809999999999999831e-01,6.445576252070139844e+00,-5.817081738356777443e-01,6.114895425434010434e+00
9.819999999999999840e-01,6.358188322805656156e+00,-6.723849863228209545e-01,6.022124219433632852e+00
9.829999999999999849e-01,6.178055926249241381e+00,-8.247285856328847586e-01,5.898755547444292979e+00
9.839999999999999858e-01,6.181182319286929072e+00,-8.227920178237189130e-01,5.900680113865857557e+00
9.849999999999999867e-01,6.663820144769529996e+00,-4.138668191019962417e-01,6.237062315519436240e+00
9.859999999999999876e-01,6.622339674065584880e+00,-4.425045463742257601e-01,6.222428937146498917e+00
9.869999999999999885e-01,6.790469401117034565e+00,-2.971866388822586025e-01,6.346088833138161078e+00
9.879999999999999893e-01,6.829933665941990917e+00,-2.687824928535653690e-01,6.364579153691396485e+00
9.889999999999999902e-01,6.543549659824018150e+00,-4.990716326898289035e-01,6.191523996107535233e+00
9.899999999999999911e-01,6.567271013151417591e+00,-4.783563445815608994e-01,6.210365548496119104e+00
9.909999999999999920e-01,6.276439778352162158e+00,-7.347429292009743929e-01,5.989549600136092167e+00
9.919999999999999929e-01,6.423959910083867797e+00,-5.831798639329467404e-01,6.146275735417584762e+00
9.929999999999999938e-01,6.478098030310982303e+00,-5.545414035327363989e-01,6.150529365957200234e+00
9.939999999999999947e-01,6.475307684777090067e+00,-5.588871446176231217e-01,6.145738343567145989e+00
9.949999999999999956e-01,6.510769605965038842e+00,-5.252833151780977872e-01,6.178590116617040273e+00
9.959999999999999964e-01,6.706787222201362475e+00,-3.713851303784397873e-01,6.291471507595066903e+00
9.969999999999999973e-01,6.654224642761625397e+00,-4.043773986317192315e-01,6.279149514044855884e+00
9.979999999999999982e-01,6.425530701121046739e+00,-6.023558955934718018e-01,6.112984515448298239e+00
9.989999999999999991e-01,6.612913012604709095e+00,-4.390228520986668714e-01,6.253365237753999217e+00
1.000000000000000000e+00,6.409652068313409501e+00,-5.962846886602163332e-01,6.143199188442088676e+00
1.001000000000000112e+00,6.671162179371889600e+00,-3.649150600703654490e-01,6.345525620999403316e+00
1.002000000000000002e+00,6.582616751322389881e+00,-4.550435484863988855e-01,6.254912872222680775e+00
1.003000000000000114e+00,6.395413506221752975e+00,-6.132672298448582637e-01,6.126770005106758177e+00
1.004000000000000004e+00,6.706132807829813913e+00,-3.567369854848597699e-01,6.330215858172429932e+00
1.005000000000000115e+00,6.734393625163541230e+00,-3.363328122721412905e-01,6.343872459379959139e+00
1.006000000000000005e+00,6.652788711081785600e+00,-3.962268227185071212e-01,6.306803844977728168e+00
1.007000000000000117e+00,6.744033316581609760e+00,-3.252622361704322618e-01,6.358609360461298543e+00
1.008000000000000007e+00,6.353943813401801144e+00,-6.557486113395308847e-01,6.088854570505610297e+00
1.009000000000000119e+00,6.523542956344305921e+00,-4.852107908626305810e-01,6.261468105087896419e+00
1.010000000000000009e+00,6.474395893199871743e+00,-5.382679132425053359e-01,6.205647623216727027e+00
1.011000000000000121e+00,6.250129083712117506e+00,-7.227260715036499805e-01,6.062155574168059502e+00
1.012000000000000011e+00,6.244929029754349159e+00,-7.347919122053703234e-01,6.044393266773286477e+00
1.013000000000000123e+00,6.587292124347890798e+00,-4.469986137631632439e-01,6.278799061232513523e+00
1.014000000000000012e+00,6.631751238907406254e+00,-3.967788434670960207e-01,6.335975865294079412e+00
1.015000000000000124e+00,6.818666871925236350e+00,-2.430115852626665851e-01,6.457806327461341311e+00
1.016000000000000014e+00,6.871095632490824556e+00,-1.970476152147310756e-01,6.498533399993447368e+00
1.017000000000000126e+00,6.592765226825640035e+00,-4.228735251003077344e-01,6.326457302632165991e+00
1.018000000000000016e+00,6.594589346770286298e+00,-4.269719581559683341e-01,6.317700160070698345e+00
1.019000000000000128e+00,6.475840323675846832e+00,-5.203292482800332408e-01,6.251018067116038246e+00
1.020000000000000018e+00,6.400799362662340286e+00,-5.742012850600204388e-01,6.219619121845113341e+00
1.021000000000000130e+00,6.707234011967360132e+00,-3.199035487135146738e-01,6.423105883859240528e+00
1.022000000000000020e+00,6.331962104054836615e+00,-6.536105580125718406e-01,6.132312534830583139e+00
1.023000000000000131e+00,6.667161629330087713e+00,-3.594583095897432301e-01,6.386790123702106747e+00
1.024000000000000021e+00,6.842427425605353442e+00,-2.234508633028450264e-01,6.484936704046315725e+00
1.024999999999999911e+00,6.736851133828945848e+00,-3.015887083872705876e-01,6.435660643615752186e+00
1.026000000000000023e+00,6.942208751478149864e+00,-1.171793078801399157e-01,6.600571979720241345e+00
1.026999999999999913e+00,6.866167683217924811e+00,-1.837653979369707757e-01,6.544918767591076048e+00
1.028000000000000025e+00,6.569703453166213514e+00,-4.219349678004779003e-01,6.366550405875797125e+00
1.028999999999999915e+00,6.741118483753199442e+00,-2.743604314550467937e-01,6.491820512212656880e+00
1.030000000000000027e+00,6.454696597771615529e+00,-5.310181211733364659e-01,6.266493431878293663e+00
1.030999999999999917e+00,6.436288684195949017e+00,-5.378084206827034031e-01,6.272918303478784097e+00
1.032000000000000028e+00,6.911734097373178898e+00,-1.345316814655428406e-01,6.605655825056635067e+00
1.032999999999999918e+00,6.834054486732258127e+00,-2.014231734265553853e-01,6.551214521003777769e+00
1.034000000000000030e+00,6.721593807464794068e+00,-2.963851684105466289e-01,6.475446562364234104e+00
1.034999999999999920e+00,6.782577419175221500e+00,-2.533315611680774793e-01,6.502299424336770883e+00
1.036000000000000032e+00,6.679965046048205402e+00,-3.204339067012601516e-01,6.472470849568479956e+00
1.036999999999999922e+00,6.593899823501367052e+00,-3.884431091647986278e-01,6.424316421924186393e+00
1.038000000000000034e+00,6.625333249106050815e+00,-3.644351799232612432e-01,6.442733097750084958e+00
1.038999999999999924e+00,6.303721279380500420e+00,-6.333016956059049907e-01,6.228482191347620045e+00
1.040000000000000036e+00,6.637959464337583881e+00,-3.464198595420893700e-01,6.469914116012244421e+00
1.040999999999999925e+00,6.616570503199576514e+00,-3.784278111846907100e-01,6.429230208012447711e+00
1.042000000000000037e+00,6.709642070503035072e+00,-2.859251139522809293e-01,6.523143923427122459e+00
1.042999999999999927e+00,7.037586849458651983e+00,-1.089130079123444561e-02,6.747283712376501263e+00
1.044000000000000039e+00,6.872752725838767063e+00,-1.532399363570977335e-01,6.629474699577709629e+00
1.044999999999999929e+00,6.809974789117141825e+00,-1.906320260155304203e-01,6.619559864101957736e+00
1.046000000000000041e+00,6.880760226544216707e+00,-1.340785096275043387e-01,6.664010156722897094e+00
1.046999999999999931e+00,6.807632013003618532e+00,-1.782389300935400822e-01,6.650983472062817370e+00
1.048000000000000043e+00,6.639119232708348584e+00,-3.217434733830426552e-01,6.534690246027997418e+00
1.048999999999999932e+00,6.912615746259402449e+00,-9.250400832667207696e-02,6.721912708456266650e+00
1.050000000000000044e+00,6.755780909997072037e+00,-2.231407137311409994e-01,6.619750908929363575e+00
1.050999999999999934e+00,6.777831016601872705e+00,-2.172966201167406686e-01,6.611702192193898320e+00
1.052000000000000046e+00,7.176291252295599499e+00,1.261053680582210901e-01,6.902395196113316089e+00
1.052999999999999936e+00,6.712279861491182942e+00,-2.734232742358291279e-01,6.569734193459421334e+00
1.054000000000000048e+00,7.044825077505716848e+00,1.959775466723600104e-02,6.825651055547975687e+00
1.054999999999999938e+00,6.916296526878797479e+00,-8.509225188285293728e-02,6.747254177818324372e+00
1.056000000000000050e+00,6.599489343935079688e+00,-3.424602907518218831e-01,6.551813801502799350e+00
1.056999999999999940e+00,6.765707698024995942e+00,-2.004805423761390204e-01,6.672076699813710654e+00
1.058000000000000052e+00,6.647814319949682194e+00,-2.952610628466457166e-01,6.602963267597784736e+00
1.058999999999999941e+00,6.827399024921780857e+00,-1.289076176466775747e-01,6.758671331254024750e+00
1.060000000000000053e+00,7.035242614517130733e+00,3.327788759252274520e-02,6.877815385734193931e+00
1.060999999999999943e+00,6.993810108803987013e+00,3.003781989400534230e-03,6.861346112779521000e+00
1.062000000000000055e+00,7.020366192730776334e+00,2.226152117115806975e-02,6.875980718729063135e+00
1.062999999999999945e+00,7.149695686268002781e+00,1.278610718009150493e-01,6.960553234216726892e+00
1.064000000000000057e+00,7.059071217416965638e+00,7.258374852071819427e-02,6.943352515939052338e+00
1.064999999999999947e+00,6.927891881528418061e+00,-4.356292350033366678e-02,6.844993313428260784e+00
1.066000000000000059e+00,6.987662449634901130e+00,1.465629387544213104e-02,6.904440066702405510e+00
1.066999999999999948e+00,6.916872031726068570e+00,-2.633290108039376687e-02,6.896053738522803123e+00
1.068000000000000060e+00,6.880733470601968271e+00,-7.466306477191908542e-02,6.838354992225340823e+00
1.068999999999999950e+00,6.927689289423153873e+00,-3.421026558398018724e-02,6.875147730963679038e+00
1.070000000000000062e+00,7.128517136319821645e+00,1.523864508396620687e-01,7.050374724045771480e+00
1.070999999999999952e+00,7.213898060497715647e+00,2.078107532548933434e-01,7.078720715743611613e+00
1.072000000000000064e+00,7.005257283747944541e+00,3.325280500621921598e-02,6.941139215854599698e+00
1.072999999999999954e+00,6.976235768664860615e+00,1.895891256215785636e-02,6.944480230340296600e+00
1.074000000000000066e+00,7.242081529270950391e+00,2.534531766809601239e-01,7.150542254909183271e+00
1.074999999999999956e+00,6.797230477910455093e+00,-1.193662818939364989e-01,6.852683881478127681e+00
1.076000000000000068e+00,6.984357346757926521e+00,5.090273375374355924e-02,7.009032991088738562e+00
1.076999999999999957e+00,7.124973310945939886e+00,1.677346793749521781e-01,7.105025498235654879e+00
1.078000000000000069e+00,7.143675331245241900e+00,1.976048970909350111e-01,7.149013265469865708e+00
1.078999999999999959e+00,7.380504981386453167e+00,3.907000058504479512e-01,7.301326059280552450e+00
1.080000000000000071e+00,7.332834804656115146e+00,3.402472959484683090e-01,7.251043984899338213e+00
1.080999999999999961e+00,7.279545160412817850e+00,3.072824306830997942e-01,7.241356045531311736e+00
1.082000000000000073e+00,7.365384436410066016e+00,3.739953107765946472e-01,7.291891661374638289e+00
1.082999999999999963e+00,7.141994032872733378e+00,1.919420487854527069e-01,7.154119636928315984e+00
1.084000000000000075e+00,6.926993339824627505e+00,2.089832619841078265e-02,7.029969900484613454e+00
1.084999999999999964e+00,7.145012715364609690e+00,2.105181738120449342e-01,7.194118089284439854e+00
1.086000000000000076e+00,6.934169182560300904e+00,3.981823384160688983e-02,7.066478379578102320e+00
1.086999999999999966e+00,7.137022344569244225e+00,2.205022921119869639e-01,7.227896638667382412e+00
1.088000000000000078e+00,7.277325371899439510e+00,3.261279697914560294e-01,7.301732823938334782e+00
1.088999999999999968e+00,7.059731456847242015e+00,1.404754262118228791e-01,7.150891936929915538e+00
1.090000000000000080e+00,7.405101486960840695e+00,4.384952466070826116e-01,7.404412128250205782e+00
1.090999999999999970e+00,7.425405271792289597e+00,4.520235408657898857e-01,7.413993671263429341e+00
1.092000000000000082e+00,7.165807247795837220e+00,2.438282623221618151e-01,7.260005897735656077e+00
1.092999999999999972e+00,7.419102440850386948e+00,4.683210514659923995e-01,7.458474925717105464e+00
1.094000000000000083e+00,7.210883279068436735e+00,2.939567057343177026e-01,7.320715789320044742e+00
1.094999999999999973e+00,6.995750635833620557e+00,1.191958554496896500e-01,7.189046750575322164e+00
1.096000000000000085e+00,7.378622143572821201e+00,4.454233630770306762e-01,7.461317787200913543e+00
1.096999999999999975e+00,7.458293799386950695e+00,5.214882060937711117e-01,7.536428755743156849e+00
1.098000000000000087e+00,7.544521135791082855e+00,5.956931904030035030e-01,7.601227650694780458e+00
1.098999999999999977e+00,7.493182293044760911e+00,5.269790402166270038e-01,7.517715714958228546e+00
1.100000000000000089e+00,7.430143976564909103e+00,4.863457471757505757e-01,7.502024183691693437e+00
1.100999999999999979e+00,7.505322408569150561e+00,5.569888041053014938e-01,7.570625803179295232e+00
1.102000000000000091e+00,7.515917478064094936e+00,5.678282301208437133e-01,7.584158734042207861e+00
1.102999999999999980e+00,7.255004166223049111e+00,3.646947841976092564e-01,7.441207555961599773e+00
1.104000000000000092e+00,7.214786161315593027e+00,3.267887155886742834e-01,7.407967156520195218e+00
1.104999999999999982e+00,7.453928335195962873e+00,5.427217127811380104e-01,7.602994155528548070e+00
1.106000000000000094e+00,7.253833728197557562e+00,3.746017205255705029e-01,7.469099557054722283e+00
1.106999999999999984e+00,7.655340692152269533e+00,7.104875609114820190e-01,7.741560851379614583e+00
1.108000000000000096e+00,7.607511572705313974e+00,6.644134867854950555e-01,7.699382442296197837e+00
1.108999999999999986e+00,7.693465285812369103e+00,7.461045574617796161e-01,7.778893824760641174e+00
1.110000000000000098e+00,7.787834886067548368e+00,8.147984223946161952e-01,7.823935586582244639e+00
1.110999999999999988e+00,7.426938097500494607e+00,5.116448330186452731e-01,7.580487903920906767e+00
1.112000000000000099e+00,7.359142827561646172e+00,4.635227996149199337e-01,7.553939343585224009e+00
1.112999999999999989e+00,7.396801844898464928e+00,4.943350484106813214e-01,7.579741101940349779e+00
1.114000000000000101e+00,7.210038546015811178e+00,3.506510827994588353e-01,7.480907363101780838e+00
1.114999999999999991e+00,7.713147760995580526e+00,7.959258884653491739e-01,7.870051905803952863e+00
1.116000000000000103e+00,7.651973774205989010e+00,7.279271596890448670e-01,7.796864537564808018e+00
1.116999999999999993e+00,7.221089848977850778e+00,3.498597090338118054e-01,7.473180391561907498e+00
1.118000000000000105e+00,7.621279641650131609e+00,6.893058913985720126e-01,7.753379362788754392e+00
1.118999999999999995e+00,7.641928734702726267e+00,7.078839806930254941e-01,7.771311330279885965e+00
1.120000000000000107e+00,7.519259384576631788e+00,6.153820424770922726e-01,7.710329156485934199e+00
1.120999999999999996e+00,7.677260132931985837e+00,7.484103296705948427e-01,7.819663869256857858e+00
1.122000000000000108e+00,7.486570721730602784e+00,5.955923853951404778e-01,7.705921954167664012e+00
1.122999999999999998e+00,7.285170413990018190e+00,4.258217727270314779e-01,7.568910494894375063e+00
1.124000000000000110e+00,7.580975365492741425e+00,6.751017606348170830e-01,7.772719174901077999e+00
1.125000000000000000e+00,7.367970377462942366e+00,4.934515658227652257e-01,7.623401009865831135e+00
1.126000000000000112e+00,7.616545294480258299e+00,7.054347995221570411e-01,7.799692844657152513e+00
1.127000000000000002e+00,7.766278660757532037e+00,8.210217258852086086e-01,7.881956215041741487e+00
1.128000000000000114e+00,7.688826375431038862e+00,7.668249406725903272e-01,7.851760050854775130e+00
1.129000000000000004e+00,7.692423298269847720e+00,7.627296740597576674e-01,7.840639676874779695e+00
1.130000000000000115e+00,7.670359722640557543e+00,7.483530563051128404e-01,7.834538872051170166e+00
1.131000000000000005e+00,7.426254164006286018e+00,5.558578876801280044e-01,7.694164621604291376e+00
1.132000000000000117e+00,7.497398449601986314e+00,6.118969782388550271e-01,7.735530707509288284e+00
1.133000000000000007e+00,7.131712904649826434e+00,2.905960011154681277e-01,7.458968229375998682e+00
1.134000000000000119e+00,7.385927947974046504e+00,5.252984780679773591e-01,7.674433980300530145e+00
1.135000000000000009e+00,7.754653004534042715e+00,8.297534988723581639e-01,7.914816973377176268e+00
1.136000000000000121e+00,7.552087214470564192e+00,6.495695311710907305e-01,7.757135352482913859e+00
1.137000000000000011e+00,7.568649150316177021e+00,6.587608141747635093e-01,7.758999462479933662e+00
1.138000000000000123e+00,7.799017183652184215e+00,8.496273990417638755e-01,7.910331563203600425e+00
1.139000000000000012e+00,7.547460548514699497e+00,6.455295456944667443e-01,7.753583559449698015e+00
1.140000000000000124e+00,7.710740405593268676e+00,7.944827411701332887e-01,7.888025973113919065e+00
1.141000000000000014e+00,7.564786999151045244e+00,6.636551236473927640e-01,7.772065633836406917e+00
1.142000000000000126e+00,7.287718894023732297e+00,4.369727673637869847e-01,7.595437011225410373e+00
1.143000000000000016e+00,7.590718544944397017e+00,6.944295780044694721e-01,7.806946435573514087e+00
1.144000000000000128e+00,7.743435823818608732e+00,8.254250870752618541e-01,7.915744158469026459e+00
1.145000000000000018e+00,7.619285985047488552e+00,7.183387299379846436e-01,7.825174942561525349e+00
1.146000000000000130e+00,7.731811539598325567e+00,7.942265067049594229e-01,7.863809508176671237e+00
1.147000000000000020e+00,7.588784182575981418e+00,6.716480599386297490e-01,7.760996759920083754e+00
1.148000000000000131e+00,7.881934359721671335e+00,1.074512219076712682e+00,8.434110089654270226e+00
1.149000000000000021e+00,8.068475649527380611e+00,1.182339499578604958e+00,8.398948246583248789e+00
1.150000000000000133e+00,7.726803773019267574e+00,8.681013685226723897e-01,8.072775206186875607e+00
1.151000000000000023e+00,7.581251391457620059e+00,7.217916709563799715e-01,7.901422777865676039e+00
1.152000000000000135e+00,7.517975164292955093e+00,6.406441128789700512e-01,7.787244348999317722e+00
1.153000000000000025e+00,7.326320808681095365e+00,4.725189738549399054e-01,7.633002183381982775e+00
1.153999999999999915e+00,7.399124660196167547e+00,5.124517460286452941e-01,7.633740563739763729e+00
1.155000000000000027e+00,7.678868047811754138e+00,7.459508042222868784e-01,7.816667186144182544e+00
1.155999999999999917e+00,7.707034629336718012e+00,7.790126336700313736e-01,7.851486882258673639e+00
1.157000000000000028e+00,7.863165853585057263e+00,9.013354176135247586e-01,7.937567476220614537e+00
1.157999999999999918e+00,7.726692099524187007e+00,7.862148198152750789e-01,7.840688623134917101e+00
1.159000000000000030e+00,7.409243733267652843e+00,5.195283265244703408e-01,7.623398211633134913e+00
1.159999999999999920e+00,7.490526728294758740e+00,5.818229186893008054e-01,7.665294755347860978e+00
1.161000000000000032e+00,7.391039655185357660e+00,5.069991422052513297e-01,7.613683067578017827e+00
1.161999999999999922e+00,7.305214399371677381e+00,4.288287669057316287e-01,7.541677146655921149e+00
1.163000000000000034e+00,7.445785271343544842e+00,5.309113970596738286e-01,7.603744283879708021e+00
1.163999999999999924e+00,7.484649624448465488e+00,5.720222746701294492e-01,7.645540049376911895e+00
1.165000000000000036e+00,7.706504311499986493e+00,7.567947962539887108e-01,7.791636866049749699e+00
1.165999999999999925e+00,7.596009629870427382e+00,6.447275296434807901e-01,7.676374095011214038e+00
1.167000000000000037e+00,7.406191281374103319e+00,4.946540310442866795e-01,7.564395706679446718e+00
1.167999999999999927e+00,7.527388201295079462e+00,5.975809632141682037e-01,7.647378684908185065e+00
1.169000000000000039e+00,7.477093272519272915e+00,5.596407105484483280e-01,7.620097539770259942e+00
1.169999999999999929e+00,7.206348545031413977e+00,3.349509526788521652e-01,7.439748231950902735e+00
1.171000000000000041e+00,7.402036326593105287e+00,4.919183510111775348e-01,7.556264451789952652e+00
1.171999999999999931e+00,7.255071306571889700e+00,3.598970925800561438e-01,7.437442579764035777e+00
1.173000000000000043e+00,7.451401526709564571e+00,5.326800040029155969e-01,7.584922940189297691e+00
1.173999999999999932e+00,7.542894935120695088e+00,5.867176305557596505e-01,7.599741401903581384e+00
1.175000000000000044e+00,7.573185687784497411e+00,6.222943463815705512e-01,7.638835293691169426e+00
1.175999999999999934e+00,7.471317449286988932e+00,5.292961170019256922e-01,7.552935625039076228e+00
1.177000000000000046e+00,7.398616526138601657e+00,4.564988642551349729e-01,7.478270679151062694e+00
1.177999999999999936e+00,7.396318303097906721e+00,4.807420151319115043e-01,7.527286670735474416e+00
1.179000000000000048e+00,7.255442323122226256e+00,3.510123792767029238e-01,7.406940417487195560e+00
1.179999999999999938e+00,7.246435073642397029e+00,3.391150198801888838e-01,7.390398292022218207e+00
1.181000000000000050e+00,7.110791773819426176e+00,2.292914527736947539e-01,7.304650829233372278e+00
1.181999999999999940e+00,7.217275414462499761e+00,2.997865481915935604e-01,7.337427486324695991e+00
1.183000000000000052e+00,7.369856066234343750e+00,4.294445898781500404e-01,7.442449449256076655e+00
1.183999999999999941e+00,7.498521161820498548e+00,5.485288396966956359e-01,7.550258476242165173e+00
1.185000000000000053e+00,7.586460272499937041e+00,6.068336948014672050e-01,7.577256431993503405e+00
1.185999999999999943e+00,7.291306078328299911e+00,3.559721672720003172e-01,7.369039273293140901e+00
1.187000000000000055e+00,7.260104847056127575e+00,3.390151245285936144e-01,7.364705047428159901e+00
1.187999999999999945e+00,7.402342780555771995e+00,4.588888756372012656e-01,7.460622714923832888e+00
1.189000000000000057e+00,7.096329897836597844e+00,2.044599167708271992e-01,7.256217754039686163e+00
1.189999999999999947e+00,7.037643943499690025e+00,1.447664131314964076e-01,7.193991212789036638e+00
1.191000000000000059e+00,7.215439780755334098e+00,2.874851556038729439e-01,7.300144225905532913e+00
1.191999999999999948e+00,7.221104368593843859e+00,3.003012780556287842e-01,7.318662469000942750e+00
1.193000000000000060e+00,7.486735118240786413e+00,5.172202490504584915e-01,7.485461782319489110e+00
